trial,decision,response time,Trial_File,num,p1,p2,p3,p4,num',p1',p2',p3',p4',P1'-P1,P2'-P2,P3'-P3,P4'-P4
1.0,0.0,2.6716408,ResultsProsodyExp_Part1_Sub101_25-Dec-2024.mat,1,-36.3788391907794,-80.7933305432007,-45.5083448106303,28.4499388991925,701,28.7093577351406,-54.6364484003545,27.2321673008665,-65.6882086685795,65.08819692592,26.156882142846193,72.7405121114968,-94.13814756777201
2.0,1.0,2.5089774,ResultsProsodyExp_Part1_Sub101_25-Dec-2024.mat,2,12.0439904584732,70.5107012399188,-6.56172422778979,88.9331981204428,702,-51.5176407559112,83.4904897394561,-36.7040897877348,-44.2455209682146,-63.561631214384406,12.979788499537293,-30.142365559945013,-133.1787190886574
3.0,1.0,2.6174473,ResultsProsodyExp_Part1_Sub101_25-Dec-2024.mat,3,47.1103992263241,51.5142599015303,1.55261692947233,-34.491612580878,703,13.4181375495692,18.7415648984773,44.7986556137102,-31.5119348243975,-33.692261676754896,-32.772695003053,43.246038684237874,2.9796777564804984
4.0,1.0,2.8768231,ResultsProsodyExp_Part1_Sub101_25-Dec-2024.mat,4,11.7663272696157,89.2863303645836,72.0996561875505,82.240368206342,704,7.5279164383502,-39.4825548672568,-89.9979908056803,-61.0497511970482,-4.238410831265501,-128.76888523184041,-162.0976469932308,-143.2901194033902
5.0,0.0,2.0729323,ResultsProsodyExp_Part1_Sub101_25-Dec-2024.mat,5,-65.9292050060086,-11.2000327937261,-24.4946424761029,-20.0707459398622,705,47.3267258348633,85.4935081811053,18.3643633260026,16.2341888623272,113.25593084087191,96.6935409748314,42.8590058021055,36.3049348021894
6.0,1.0,2.32415,ResultsProsodyExp_Part1_Sub101_25-Dec-2024.mat,6,54.6332894069848,-51.8928995720642,-51.6133428790529,82.4906753132743,706,-88.1590848838326,-10.142970879021,21.5917439156371,-31.4609334534804,-142.7923742908174,41.7499286930432,73.20508679469,-113.9516087667547
7.0,1.0,3.2827414,ResultsProsodyExp_Part1_Sub101_25-Dec-2024.mat,7,-35.6947586853846,52.1072762026848,-19.4868391184182,78.6556127556958,707,-35.0753042540562,-44.7286688652177,-51.459853892134,-27.3933716150917,0.6194544313283998,-96.8359450679025,-31.9730147737158,-106.0489843707875
8.0,0.0,2.3245122,ResultsProsodyExp_Part1_Sub101_25-Dec-2024.mat,8,43.2097943147354,-72.9672684783383,-50.2452070433621,-79.0588581491015,708,20.0296042924487,-9.04443237335747,77.8293964958045,-75.6537979286561,-23.1801900222867,63.92283610498083,128.07460353916662,3.4050602204453924
9.0,1.0,2.495997,ResultsProsodyExp_Part1_Sub101_25-Dec-2024.mat,9,14.5955143986634,-53.9050223272394,39.3819135477901,60.8643272739777,709,-57.9392820998085,48.444776640946,-59.9010414638998,-29.8500338965283,-72.5347964984719,102.34979896818541,-99.2829550116899,-90.714361170506
10.0,1.0,2.3799018,ResultsProsodyExp_Part1_Sub101_25-Dec-2024.mat,10,-34.5650926779425,-48.3290389666705,45.6769067042617,20.8581645066691,710,-60.7343138751905,13.9155834794673,-40.7922671603685,3.42234855170712,-26.169221197248,62.244622446137804,-86.46917386463019,-17.43581595496198
11.0,1.0,2.1530897,ResultsProsodyExp_Part1_Sub101_25-Dec-2024.mat,11,74.7578004893265,21.4984775940099,80.2338785353433,82.3177574081593,711,-19.8742749555481,-1.07843908092355,-31.9407375086441,57.6919386490967,-94.6320754448746,-22.57691667493345,-112.1746160439874,-24.625818759062597
12.0,1.0,3.0371145,ResultsProsodyExp_Part1_Sub101_25-Dec-2024.mat,12,65.2064329893946,29.5150805775743,-33.5960107995989,-55.0576308604864,712,21.0561441903908,33.3411512145062,73.6190867524866,35.8180876790024,-44.1502887990038,3.826070636931899,107.2150975520855,90.8757185394888
13.0,0.0,2.1924172,ResultsProsodyExp_Part1_Sub101_25-Dec-2024.mat,13,89.9848648598927,-48.4487152510106,-49.0803722809539,-58.415110508148,713,53.4660450466734,-24.9744636099675,47.1285766735877,35.3782491708252,-36.518819813219295,23.474251641043097,96.2089489545416,93.79335967897319
14.0,1.0,1.8678909,ResultsProsodyExp_Part1_Sub101_25-Dec-2024.mat,14,-20.3759478583726,22.6748792546583,24.1668698496597,28.7109895435897,714,-52.5862562494741,-52.6846266424963,-19.4473605097753,18.1541570279885,-32.21030839110149,-75.3595058971546,-43.614230359435,-10.5568325156012
15.0,1.0,2.1456402,ResultsProsodyExp_Part1_Sub101_25-Dec-2024.mat,15,-0.194056271275787,-29.1610766988703,30.0174853319097,79.9152981845104,715,36.969409798348,12.3699322929136,2.30131513984392,42.6914398090088,37.16346606962379,41.5310089917839,-27.716170192065782,-37.22385837550161
16.0,0.0,2.2624402,ResultsProsodyExp_Part1_Sub101_25-Dec-2024.mat,16,2.48531870466341,-59.8289180177348,-27.6774499101036,-24.7830763382401,716,27.7944906861766,45.2364038308258,-77.4073488735906,-5.94058171916286,25.30917198151319,105.0653218485606,-49.729898963487,18.84249461907724
17.0,1.0,2.5999196,ResultsProsodyExp_Part1_Sub101_25-Dec-2024.mat,17,-47.1937509235248,57.2043046692389,44.4946682291654,-14.1715923889777,717,18.4558643209441,21.3521524651032,-11.9484910651727,-70.2100708994332,65.6496152444689,-35.852152204135706,-56.4431592943381,-56.038478510455505
18.0,0.0,2.3854265,ResultsProsodyExp_Part1_Sub101_25-Dec-2024.mat,18,60.3622445857704,-64.8794759984136,46.1257358849795,-33.1693938283924,718,30.3039800007947,-36.6328113997658,13.4617907467869,-70.3241545806014,-30.0582645849757,28.246664598647797,-32.6639451381926,-37.154760752209
19.0,0.0,2.3624463,ResultsProsodyExp_Part1_Sub101_25-Dec-2024.mat,19,-32.3880421299909,51.0014254346261,24.5808282651767,-37.0334647411961,719,11.3263397675487,7.43582773757797,-34.487818758964,6.70868802867988,43.714381897539596,-43.56559769704813,-59.0686470241407,43.74215276987598
20.0,0.0,2.2937862,ResultsProsodyExp_Part1_Sub101_25-Dec-2024.mat,20,33.8498473300659,10.0933435169505,66.4317117086945,27.983981404904,720,33.8630540670641,-11.4710922885373,28.8518603721319,44.6632130750221,0.01320673699819963,-21.564435805487797,-37.5798513365626,16.6792316701181
21.0,1.0,2.1480294,ResultsProsodyExp_Part1_Sub101_25-Dec-2024.mat,21,0.0486159766610958,69.6663454193517,24.6494412517443,54.4742379062324,721,9.11021655460063,14.2729732536942,-43.6270561702493,18.0029060261818,9.061600577939535,-55.393372165657496,-68.2764974219936,-36.4713318800506
22.0,1.0,2.2330841,ResultsProsodyExp_Part1_Sub101_25-Dec-2024.mat,22,32.0237029463979,-58.4560192044671,70.4459738278438,-40.1091067393888,722,77.9628211085785,-32.8195045500977,-80.8807454814738,-47.5764282058486,45.9391181621806,25.6365146543694,-151.32671930931758,-7.467321466459801
23.0,0.0,2.1145204,ResultsProsodyExp_Part1_Sub101_25-Dec-2024.mat,23,59.5620023801016,-35.6299050221645,71.7742580047545,-28.3769755369593,723,-22.4095829098062,-1.39640387115465,23.8755857892046,32.2327802974832,-81.97158528990781,34.23350115100985,-47.8986722155499,60.6097558344425
24.0,0.0,3.3706553,ResultsProsodyExp_Part1_Sub101_25-Dec-2024.mat,24,40.5257883666615,1.60765672034577,19.3733124162455,-82.93559059142,724,60.2739418540042,58.1438786175882,46.7145953548926,-59.2207597952783,19.748153487342698,56.53622189724243,27.3412829386471,23.714830796141698
25.0,1.0,2.9439911,ResultsProsodyExp_Part1_Sub101_25-Dec-2024.mat,25,-74.8719731307176,35.1339644537913,-25.6638706150506,-34.7315400613375,725,23.6336374456836,-72.093890302575,-85.8766455355262,-69.356558005192,98.50561057640121,-107.2278547563663,-60.212774920475596,-34.6250179438545
26.0,0.0,2.117378,ResultsProsodyExp_Part1_Sub101_25-Dec-2024.mat,26,4.3666822061826,10.6627381278426,4.7699739906588,-2.2901710945134,726,-4.2602682603655,12.4946718832135,23.2532082667355,33.1631269770158,-8.626950466548099,1.8319337553709012,18.4832342760767,35.4532980715292
27.0,1.0,2.2490908,ResultsProsodyExp_Part1_Sub101_25-Dec-2024.mat,27,-66.6914019833471,-5.54732941735171,-37.7025665586787,44.3316757406164,727,-54.0695061280497,-68.9695841900698,26.9636070769692,1.18277128113343,12.621895855297403,-63.422254772718084,64.6661736356479,-43.148904459482964
28.0,0.0,2.2131363,ResultsProsodyExp_Part1_Sub101_25-Dec-2024.mat,28,38.1941438497953,5.35716463277563,-67.060072114568,-0.644316336081755,728,6.95692605253647,27.3759793637701,10.6436140273912,43.1034144787252,-31.237217797258833,22.01881473099447,77.7036861419592,43.74773081480696
29.0,0.0,2.2997024,ResultsProsodyExp_Part1_Sub101_25-Dec-2024.mat,29,-43.4969064671121,-41.5456488518595,-17.4485925321346,85.7118843940497,729,-31.8733669861761,-33.4127538864828,-60.9541474497273,86.8742447336198,11.623539480935996,8.1328949653767,-43.505554917592704,1.1623603395700997
30.0,1.0,2.3236899,ResultsProsodyExp_Part1_Sub101_25-Dec-2024.mat,30,47.1154693297426,21.8496009465222,7.56885656847091,68.1260583902203,730,-34.1704942363639,-35.1219131947007,-40.2879030034063,-79.5797092261445,-81.2859635661065,-56.971514141222904,-47.856759571877205,-147.7057676163648
31.0,0.0,2.8911615,ResultsProsodyExp_Part1_Sub101_25-Dec-2024.mat,31,-56.1893339625717,26.0136492731346,54.5013021887336,48.8287804100947,731,49.6553377237038,-23.4747757075939,70.4474277610136,-8.72958613089827,105.8446716862755,-49.488424980728496,15.946125572280003,-57.55836654099297
32.0,1.0,2.3249538,ResultsProsodyExp_Part1_Sub101_25-Dec-2024.mat,32,17.6694153413274,-38.4911778782263,52.2766601495853,75.8233612614841,732,-43.6528301868483,-17.6271674549576,5.60900249557807,68.2960182742255,-61.3222455281757,20.864010423268702,-46.66765765400723,-7.527342987258592
33.0,1.0,2.0399024,ResultsProsodyExp_Part1_Sub101_25-Dec-2024.mat,33,-89.0593628260002,30.5815354127761,49.7229364559718,51.5980174694109,733,62.8993763791084,59.0127207142949,23.3924039626831,-43.5598230221396,151.9587392051086,28.431185301518802,-26.330532493288697,-95.1578404915505
34.0,0.0,2.9407552,ResultsProsodyExp_Part1_Sub101_25-Dec-2024.mat,34,-38.0190709825942,5.0511151817396,77.8455606777395,-84.3425887542258,734,-25.4721914907133,32.6720215380608,47.2041972575826,-5.22343838374086,12.546879491880901,27.620906356321196,-30.6413634201569,79.11915037048495
35.0,1.0,2.384007,ResultsProsodyExp_Part1_Sub101_25-Dec-2024.mat,35,-26.7307887166897,51.142591683734,32.8100452037339,59.3442684967297,735,-35.1298870463413,-3.93766284157188,83.770612526156,15.304165314822,-8.399098329651604,-55.080254525305875,50.9605673224221,-44.040103181907696
36.0,1.0,2.2451357,ResultsProsodyExp_Part1_Sub101_25-Dec-2024.mat,36,-11.9893672597893,41.2600191653547,-2.2404667171447,57.7712510546356,736,-33.4532024844064,15.6771681076769,-16.218239609538,59.0144853594363,-21.463835224617096,-25.5828510576778,-13.977772892393299,1.2432343048007013
37.0,0.0,4.0472221,ResultsProsodyExp_Part1_Sub101_25-Dec-2024.mat,37,-40.8660394052073,66.5286255643703,87.7655396052128,-73.2587239792358,737,-48.0675511411416,67.2374183988885,65.3337359708698,49.5965307396481,-7.201511735934297,0.7087928345181922,-22.431803634342998,122.8552547188839
38.0,1.0,1.9879984,ResultsProsodyExp_Part1_Sub101_25-Dec-2024.mat,38,-28.6671100731486,21.5526083904198,23.1450206086588,-62.324873477349,738,-46.7273991700644,-39.4181448719282,-40.4021296154321,32.280114784028,-18.060289096915803,-60.970753262348,-63.5471502240909,94.604988261377
39.0,0.0,2.2009403,ResultsProsodyExp_Part1_Sub101_25-Dec-2024.mat,39,67.4079522549754,-89.0462878806501,-0.110817896444628,-72.5942441373863,739,89.8074262898543,80.4487843332555,25.4554098278538,24.6891923697501,22.399474034878907,169.4950722139056,25.56622772429843,97.2834365071364
40.0,1.0,2.396718,ResultsProsodyExp_Part1_Sub101_25-Dec-2024.mat,40,82.697917394903,-6.17763039834826,11.0714982004686,32.4855539352639,740,-25.6790411431827,-52.4113846120365,-20.8805246820656,-18.8333421334777,-108.3769585380857,-46.23375421368824,-31.9520228825342,-51.3188960687416
41.0,1.0,2.325471,ResultsProsodyExp_Part1_Sub101_25-Dec-2024.mat,41,76.7511779047609,22.960948272309,10.8970024353672,27.8879314874274,741,37.9601612228119,23.9740770687625,-49.4685597296407,-40.8369859770705,-38.791016681948996,1.0131287964535005,-60.3655621650079,-68.7249174644979
42.0,0.0,2.1793033,ResultsProsodyExp_Part1_Sub101_25-Dec-2024.mat,42,-41.4574520267898,78.8240668229977,-55.8845900263999,-38.3155276813082,742,88.7687583652699,77.555136030666,-24.0557369190628,-10.1593945254628,130.2262103920597,-1.2689307923316875,31.8288531073371,28.156133155845396
43.0,0.0,2.5483867,ResultsProsodyExp_Part1_Sub101_25-Dec-2024.mat,43,51.826178109869,-44.2325982435177,71.5608006977342,34.1364758803866,743,67.0415571148384,5.79379921752882,13.7033364157879,43.3654931313639,15.2153790049694,50.02639746104652,-57.85746428194629,9.2290172509773
44.0,0.0,2.410159,ResultsProsodyExp_Part1_Sub101_25-Dec-2024.mat,44,48.4994961981605,-85.1068835843542,-79.8502003235644,11.3190265039288,744,15.3726626643911,75.3896806190632,-62.9459428810478,41.4531294873272,-33.1268335337694,160.4965642034174,16.904257442516595,30.134102983398403
45.0,0.0,3.4865689,ResultsProsodyExp_Part1_Sub101_25-Dec-2024.mat,45,-77.295548242732,-1.04264166058647,87.9181713603132,-62.6202876176181,745,77.9804202634917,-81.7902272708261,65.0905985387287,17.3903345870575,155.2759685062237,-80.74758561023962,-22.827572821584496,80.0106222046756
46.0,0.0,3.0056828,ResultsProsodyExp_Part1_Sub101_25-Dec-2024.mat,46,59.5930648254311,-70.7373199385686,28.7758946187726,24.1771884080291,746,41.4383812533829,24.9953872501095,11.97378870995,-84.2710758383298,-18.1546835720482,95.7327071886781,-16.8021059088226,-108.4482642463589
47.0,1.0,2.1157953,ResultsProsodyExp_Part1_Sub101_25-Dec-2024.mat,47,67.7680964722171,-1.92393354160831,85.8229323307446,54.0912026413292,747,7.0567175363756,-22.9036721146772,54.5514124063243,12.9942700282936,-60.711378935841495,-20.97973857306889,-31.271519924420303,-41.0969326130356
48.0,1.0,2.0079858,ResultsProsodyExp_Part1_Sub101_25-Dec-2024.mat,48,-2.49915208287605,33.293755761264,-15.7068728761951,5.62087852310893,748,-21.8698646136018,-70.1158018776451,-86.8527110737684,-24.686100870679,-19.370712530725747,-103.40955763890909,-71.14583819757331,-30.306979393787927
49.0,0.0,2.0263365,ResultsProsodyExp_Part1_Sub101_25-Dec-2024.mat,49,-72.3866225650432,-4.82650168083726,1.9358076480391,66.3023435629899,749,-85.5592192831642,-67.3314132692259,5.75957974495583,-24.1548342258416,-13.172596718121,-62.504911588388644,3.8237720969167297,-90.4571777888315
50.0,0.0,2.245675,ResultsProsodyExp_Part1_Sub101_25-Dec-2024.mat,50,-4.97848850668232,56.2015856926856,71.1816031593537,0.102181686245437,750,81.4612565157949,84.5649955879543,-5.74854638261901,-26.7484831274171,86.43974502247723,28.363409895268703,-76.93014954197271,-26.850664813662537
51.0,0.0,3.9412759,ResultsProsodyExp_Part1_Sub101_25-Dec-2024.mat,51,-49.1093517472825,-42.8546250681667,-80.7971602093718,66.6925521468717,751,-11.3229667884476,-74.0853125457507,24.785957404626,-82.1580746014221,37.7863849588349,-31.230687477584,105.5831176139978,-148.8506267482938
52.0,0.0,3.3268804,ResultsProsodyExp_Part1_Sub101_25-Dec-2024.mat,52,-23.520308562395,-41.0430855386982,71.8984948616742,25.7225547669858,752,41.2069441817885,66.901276301253,-83.8935943104508,89.2093740092177,64.7272527441835,107.9443618399512,-155.79208917212497,63.486819242231896
53.0,1.0,2.5997457,ResultsProsodyExp_Part1_Sub101_25-Dec-2024.mat,53,-27.9936065691642,-36.3837459540641,70.768324639771,83.3382018844835,753,-15.1488507010606,56.3871383604827,-20.7544076454423,59.5433860443074,12.8447558681036,92.7708843145468,-91.5227322852133,-23.7948158401761
54.0,0.0,2.317194,ResultsProsodyExp_Part1_Sub101_25-Dec-2024.mat,54,-20.2243528325871,-11.3896389169302,-0.000340620545160695,1.16233918871051,754,49.3199853968128,-72.7765215294846,83.4925037495966,-12.3999638498458,69.5443382293999,-61.386882612554395,83.49284437014175,-13.56230303855631
55.0,0.0,2.1413933,ResultsProsodyExp_Part1_Sub101_25-Dec-2024.mat,55,29.583687296889,-80.6311013058178,-6.0580514099084,-45.5122304339277,755,61.8944701112975,66.3870403588375,24.1986552689798,-47.6250072397596,32.3107828144085,147.01814166465527,30.2567066788882,-2.112776805831899
56.0,0.0,1.9832444,ResultsProsodyExp_Part1_Sub101_25-Dec-2024.mat,56,51.5231570484204,-65.8271335371909,-66.7677548265329,-51.3290535461824,756,79.273118313973,0.608338291950923,-2.45245468700803,68.3868668070424,27.7499612655526,66.43547182914183,64.31530013952487,119.71592035322479
57.0,0.0,2.1647368,ResultsProsodyExp_Part1_Sub101_25-Dec-2024.mat,57,73.7261668386263,-5.47243519274993,-82.9241992486401,49.4249026347557,757,-54.8628450840675,-3.52977617459146,51.6362867848451,68.3532592584079,-128.5890119226938,1.9426590181584698,134.56048603348518,18.9283566236522
58.0,0.0,2.6917457,ResultsProsodyExp_Part1_Sub101_25-Dec-2024.mat,58,-80.8015118088693,72.3545807826344,-37.2470275375906,6.07905936107381,758,-26.4886941894729,31.3155435612614,-70.6718553893463,49.0719936353223,54.3128176193964,-41.039037221373,-33.42482785175571,42.99293427424849
59.0,1.0,2.0745956,ResultsProsodyExp_Part1_Sub101_25-Dec-2024.mat,59,17.2990324687681,48.6094477650785,-40.5461543146041,67.4512264658337,759,35.3868347168259,-66.4990561369052,1.48828403218294,44.4862597126293,18.087802248057802,-115.1085039019837,42.03443834678704,-22.9649667532044
60.0,0.0,2.0090491,ResultsProsodyExp_Part1_Sub101_25-Dec-2024.mat,60,-24.3553244465214,81.2959197360138,-24.8717163316872,-48.7693494714988,760,58.4605083264645,77.7852279054091,43.6977026339269,54.9852504467664,82.8158327729859,-3.5106918306046992,68.5694189656141,103.7545999182652
61.0,1.0,2.3097002,ResultsProsodyExp_Part1_Sub101_25-Dec-2024.mat,61,-18.0970206989525,-1.01444122127289,81.9714529253832,32.7432825571336,761,-29.4352780075247,10.1546748693574,25.2674347354062,18.7854850493262,-11.3382573085722,11.16911609063029,-56.704018189977006,-13.957797507807395
62.0,1.0,1.8077691,ResultsProsodyExp_Part1_Sub101_25-Dec-2024.mat,62,26.3491496581744,19.6203297761196,72.5206059083493,-11.2122254002202,762,-81.7673825992706,65.6954547831018,-46.7059325329983,83.6336896102899,-108.116532257445,46.07512500698219,-119.2265384413476,94.84591501051011
63.0,0.0,1.9738056,ResultsProsodyExp_Part1_Sub101_25-Dec-2024.mat,63,-22.4125300457756,83.9969173008305,-30.3864238346166,46.8233031817813,763,-39.1445868495495,11.5114052305498,22.1598990088219,62.4983759891665,-16.732056803773897,-72.4855120702807,52.5463228434385,15.675072807385199
64.0,0.0,2.4217928,ResultsProsodyExp_Part1_Sub101_25-Dec-2024.mat,64,-76.2413616191504,55.9223468585603,-79.6079719736773,-30.9725768958202,764,-66.8883642514668,-1.0907819058059,18.5845401729746,72.8037820376856,9.3529973676836,-57.0131287643662,98.1925121466519,103.77635893350579
65.0,0.0,1.9395495,ResultsProsodyExp_Part1_Sub101_25-Dec-2024.mat,65,67.1695810907831,-15.8220185307187,-10.3596388392534,69.086493648652,765,30.5584407658457,-10.1941664250039,67.2469183401329,-75.1431186071158,-36.611140324937395,5.627852105714799,77.6065571793863,-144.2296122557678
66.0,0.0,2.3072259,ResultsProsodyExp_Part1_Sub101_25-Dec-2024.mat,66,-6.63768818535766,13.4384029720909,-57.9053241617166,40.2168493830907,766,-30.7890700667192,30.6205108471253,0.412675272386873,84.8965762419321,-24.15138188136154,17.182107875034397,58.31799943410347,44.6797268588414
67.0,0.0,5.4356213,ResultsProsodyExp_Part1_Sub101_25-Dec-2024.mat,67,2.61201009943707,61.84424383669,-36.8457022839032,-55.7620516624468,767,-17.8539430634296,-17.4949488493427,76.7072956187732,-52.2953762295303,-20.46595316286667,-79.3391926860327,113.5529979026764,3.466675432916503
68.0,0.0,1.9960228,ResultsProsodyExp_Part1_Sub101_25-Dec-2024.mat,68,-68.7692102186171,86.240418490056,-6.08849505372011,2.92039875068008,768,23.2895892566645,5.01227897990071,0.69117954696154,-38.837596745702,92.0587994752816,-81.22813951015529,6.77967460068165,-41.75799549638208
69.0,0.0,2.600879,ResultsProsodyExp_Part1_Sub101_25-Dec-2024.mat,69,47.3653205057775,57.0631796832351,-31.5083962200326,-17.3220208697286,769,-38.4116710830604,12.808078393298,-47.3055755213076,-0.497264983467119,-85.77699158883789,-44.2551012899371,-15.797179301275001,16.82475588626148
70.0,1.0,1.997468,ResultsProsodyExp_Part1_Sub101_25-Dec-2024.mat,70,-12.6541611880617,-24.2992267945542,60.2247572352922,-59.6550674826458,770,77.3391047850552,59.1694261155981,-12.5061400850892,-27.7798938048935,89.9932659731169,83.4686529101523,-72.7308973203814,31.875173677752297
71.0,0.0,3.0804083,ResultsProsodyExp_Part1_Sub101_25-Dec-2024.mat,71,21.9018489222385,-62.3603136601776,38.1385481686496,54.4109542583555,771,-60.8016501913035,82.4316678417138,70.5374344576752,10.3740031700947,-82.703499113542,144.7919815018914,32.398886289025604,-44.03695108826081
72.0,1.0,2.4127771,ResultsProsodyExp_Part1_Sub101_25-Dec-2024.mat,72,-46.0937589806411,88.011564716122,-41.5065658457068,-53.5929425038308,772,-53.8259123164849,37.6701691778319,-86.142425939721,-7.95202171414099,-7.732153335843805,-50.341395538290094,-44.63586009401419,45.64092078968981
73.0,0.0,2.0715497,ResultsProsodyExp_Part1_Sub101_25-Dec-2024.mat,73,-80.1203079036517,-22.011593456476,32.4625247345733,-69.6377089657654,773,-32.4296987449021,-11.6388510981081,1.27350618545646,23.5881287898273,47.69060915874961,10.3727423583679,-31.18901854911684,93.22583775559269
74.0,0.0,1.9183753,ResultsProsodyExp_Part1_Sub101_25-Dec-2024.mat,74,-70.1864202321949,-26.2271575527044,-73.878103397831,-66.4132385319822,774,84.339508926865,-29.8402665101205,-2.04678938188932,46.7115228854467,154.5259291590599,-3.613108957416099,71.83131401594167,113.1247614174289
75.0,0.0,1.851729,ResultsProsodyExp_Part1_Sub101_25-Dec-2024.mat,75,-50.1898839129284,31.1831340177563,-51.2487569949606,42.6175284026966,775,59.8082174173568,23.5210934392291,73.4510392048071,62.8259471621887,109.99810133028521,-7.662040578527197,124.6997961997677,20.208418759492098
76.0,0.0,1.8088404,ResultsProsodyExp_Part1_Sub101_25-Dec-2024.mat,76,-0.0341649427806369,-76.0253900555396,-29.6083837228686,40.1981271804873,776,-24.2290875314096,4.68583564286882,9.05024761237396,-73.0891619302017,-24.194922588628963,80.71122569840843,38.65863133524256,-113.28728911068899
77.0,1.0,3.1265581,ResultsProsodyExp_Part1_Sub101_25-Dec-2024.mat,77,22.6536937378782,52.1319684386461,-47.0219831771309,85.0689730696852,777,-33.11538336841,-0.664535363715338,-86.7480075451183,48.704100691474,-55.7690771062882,-52.796503802361435,-39.7260243679874,-36.3648723782112
78.0,0.0,2.1949626,ResultsProsodyExp_Part1_Sub101_25-Dec-2024.mat,78,2.79806544865961,39.3078112215907,-47.13381800708,65.7708040277798,778,24.1191812860636,-27.7346063406431,2.20013847125716,82.6247483992493,21.32111583740399,-67.0424175622338,49.333956478337164,16.853944371469495
79.0,0.0,2.3312216,ResultsProsodyExp_Part1_Sub101_25-Dec-2024.mat,79,69.1325147861674,31.4191925182897,28.7148972049356,-41.9292520089316,779,61.9105925979861,66.6948439451996,8.41148948760852,69.4926526323836,-7.221922188181303,35.27565142690989,-20.30340771732708,111.4219046413152
80.0,1.0,2.6121343,ResultsProsodyExp_Part1_Sub101_25-Dec-2024.mat,80,44.2799525487679,-16.55636186492,-15.551618751535,33.3910193191397,780,9.85665624625195,-45.9588555755414,6.52655223594158,6.63975436862998,-34.42329630251595,-29.4024937106214,22.078170987476582,-26.75126495050972
81.0,1.0,2.6493432,ResultsProsodyExp_Part1_Sub101_25-Dec-2024.mat,81,-86.1601964826585,-57.1686367981243,17.215473736399,27.6616110357759,781,-50.164738902181,-10.4449852846022,-63.4324283354677,-25.1307069263414,35.995457580477506,46.7236515135221,-80.6479020718667,-52.792317962117295
82.0,0.0,2.1693747,ResultsProsodyExp_Part1_Sub101_25-Dec-2024.mat,82,-22.4391920346863,-49.7282249607546,-45.628091452887,30.5975273233224,782,-35.5446215471673,23.2754738552032,-1.47122233757327,12.7546772325975,-13.105429512481003,73.0036988159578,44.156869115313725,-17.8428500907249
83.0,1.0,2.2598104,ResultsProsodyExp_Part1_Sub101_25-Dec-2024.mat,83,-34.1902239833051,60.0212683570495,6.18728969512866,-75.3623278593867,783,-19.7217898724229,-63.2405088515088,-75.1757954187614,71.8508544375614,14.468434110882203,-123.2617772085583,-81.36308511389005,147.2131822969481
84.0,0.0,2.0008275,ResultsProsodyExp_Part1_Sub101_25-Dec-2024.mat,84,46.7691076693314,-59.9926258855751,82.7432799491831,-18.5356962546287,784,5.72177249593726,-59.0192080775224,48.9693354674502,51.604807588049,-41.04733517339414,0.9734178080527016,-33.773944481732904,70.1405038426777
85.0,0.0,2.3446718,ResultsProsodyExp_Part1_Sub101_25-Dec-2024.mat,85,-68.7269190503416,-53.4442467522666,-13.7442452961578,56.3275518744862,785,-57.9887672074587,-25.5019263491801,-45.1753848928686,14.835946222518,10.738151842882907,27.9423204030865,-31.4311395967108,-41.4916056519682
86.0,0.0,2.5756928,ResultsProsodyExp_Part1_Sub101_25-Dec-2024.mat,86,32.918505606805,-49.9252872614436,-54.5713715446456,-71.2918634115476,786,-58.7641585999781,-30.3339221861006,2.84757288413116,38.3969968296718,-91.6826642067831,19.591365075343,57.41894442877676,109.6888602412194
87.0,1.0,2.3141937,ResultsProsodyExp_Part1_Sub101_25-Dec-2024.mat,87,62.9852032505295,15.8560579227692,21.9527280208716,-23.5410368370287,787,-31.8486752612254,-33.5521823629298,-62.4502213145886,-29.2128894225994,-94.8338785117549,-49.408240285698994,-84.4029493354602,-5.671852585570701
88.0,0.0,2.0697962,ResultsProsodyExp_Part1_Sub101_25-Dec-2024.mat,88,-58.6237968390568,-14.3705036998672,-24.7466306243612,-70.313266244217,788,-59.3975354112438,39.7084706363923,76.3011142327096,-8.75946679666993,-0.7737385721869998,54.0789743362595,101.0477448570708,61.55379944754708
89.0,0.0,1.9047212,ResultsProsodyExp_Part1_Sub101_25-Dec-2024.mat,89,71.605857924693,-51.1652260381388,36.7674805048811,60.1361793265332,789,1.01003110560603,-25.5464613763636,-35.3720329068673,-5.2853504468316,-70.59582681908697,25.6187646617752,-72.1395134117484,-65.4215297733648
90.0,1.0,1.7610149,ResultsProsodyExp_Part1_Sub101_25-Dec-2024.mat,90,-6.94449333337971,77.6027332522509,40.7685793550262,88.5412683057676,790,25.662235547332,-4.34539508899765,45.6423315158055,-10.0528648340641,32.60672888071171,-81.94812834124855,4.873752160779304,-98.5941331398317
91.0,1.0,2.521409,ResultsProsodyExp_Part1_Sub101_25-Dec-2024.mat,91,-68.9267339231669,-29.3887868354763,59.3613565458804,53.5411963097779,791,-7.26316217010305,-12.0627162424508,-85.4872292884019,-47.6196146926736,61.663571753063856,17.3260705930255,-144.8485858342823,-101.16081100245151
92.0,1.0,1.8308232,ResultsProsodyExp_Part1_Sub101_25-Dec-2024.mat,92,-10.5156275274811,37.2426551046748,31.1686830491421,50.2856471153498,792,78.4066111380608,-70.1297644543034,54.4907586485451,-20.887643682404,88.9222386655419,-107.37241955897821,23.322075599403004,-71.17329079775381
93.0,1.0,2.0014752,ResultsProsodyExp_Part1_Sub101_25-Dec-2024.mat,93,-41.0657073556942,-26.0023201985321,19.8326660398016,46.6522644619315,793,-75.7327733274896,-13.1912222455015,54.4044642983792,-15.0844666988514,-34.667065971795395,12.8110979530306,34.5717982585776,-61.7367311607829
94.0,0.0,1.8987511,ResultsProsodyExp_Part1_Sub101_25-Dec-2024.mat,94,76.3909358121262,31.6390469395041,-48.5841083531029,5.43879988433193,794,57.286247607812,-62.8510409399224,21.4830196335583,56.0733193540142,-19.1046882043142,-94.4900878794265,70.0671279866612,50.634519469682274
95.0,1.0,2.2581081,ResultsProsodyExp_Part1_Sub101_25-Dec-2024.mat,95,3.54887076601563,50.4995884766972,34.7717158693848,-68.0083671306971,795,-22.9117452829152,-88.1156788798157,30.3856625355626,25.9129444574488,-26.460616048930827,-138.6152673565129,-4.3860533338222005,93.9213115881459
96.0,0.0,1.944571,ResultsProsodyExp_Part1_Sub101_25-Dec-2024.mat,96,9.6235014521418,-53.5498137741101,-25.9392953763116,-33.8092728943749,796,-22.4978584053049,-4.12974421006008,81.6709577093356,-83.5993700380195,-32.1213598574467,49.42006956405002,107.6102530856472,-49.7900971436446
97.0,1.0,1.8994224,ResultsProsodyExp_Part1_Sub101_25-Dec-2024.mat,97,-43.9530032326016,-64.2134580311449,6.16099736341549,-34.9513484238269,797,-28.2678138066186,43.1287782281607,-69.8570575402121,-3.89979435402375,15.685189425983001,107.3422362593056,-76.01805490362759,31.05155406980315
98.0,0.0,2.5623824,ResultsProsodyExp_Part1_Sub101_25-Dec-2024.mat,98,-0.219243353488561,-89.2849646053351,-43.8912888633933,-36.0441177701651,798,-38.6559828410216,-71.9296008185951,-15.6050933516636,-62.9166221398688,-38.43673948753304,17.35536378674,28.2861955117297,-26.872504369703698
99.0,1.0,1.8869953,ResultsProsodyExp_Part1_Sub101_25-Dec-2024.mat,99,16.7241841168454,81.4130834349341,3.40926947900199,61.8820655650039,799,-43.7667566767412,63.024094596498,-39.387739911873,61.6203632967297,-60.4909407935866,-18.38898883843609,-42.79700939087499,-0.26170226827419896
100.0,1.0,2.2615946,ResultsProsodyExp_Part1_Sub101_25-Dec-2024.mat,100,55.0515919813202,-74.7347594750175,82.6366646533251,-4.55872780442781,800,-72.8348886357029,-40.551911947457,-59.8126269433048,-2.90956612753966,-127.8864806170231,34.1828475275605,-142.4492915966299,1.6491616768881499
101.0,0.0,2.4442152,ResultsProsodyExp_Part2_Sub101_25-Dec-2024.mat,101,-18.9493236828962,-3.39200482437484,-55.6842365853764,-45.8978839771716,801,-50.0425824098093,-59.819083692384,5.49839222089807,33.7403541496524,-31.0932587269131,-56.42707886800916,61.182628806274465,79.638238126824
102.0,1.0,1.9398979,ResultsProsodyExp_Part2_Sub101_25-Dec-2024.mat,102,7.32050553378377,-14.0365626653561,-16.8825335623079,-30.1772002040667,802,5.74796837229922,32.3274059848726,-70.5294804355993,41.2265474258665,-1.5725371614845498,46.3639686502287,-53.6469468732914,71.4037476299332
103.0,0.0,2.6025868,ResultsProsodyExp_Part2_Sub101_25-Dec-2024.mat,103,-39.089745462454,24.597732542853,-57.9680135672149,54.3516039940991,803,48.8369201106826,-53.7941586322986,-56.5819334877728,25.3706202379936,87.9266655731366,-78.3918911751516,1.3860800794421024,-28.980983756105502
104.0,1.0,1.7797501,ResultsProsodyExp_Part2_Sub101_25-Dec-2024.mat,104,-48.7365363381045,24.2541788234225,60.5096725278122,74.0802297221809,804,68.9815691928113,-85.7249543379317,65.9380233203479,-41.280169057596,117.7181055309158,-109.97913316135421,5.428350792535696,-115.3603987797769
105.0,0.0,2.1915916,ResultsProsodyExp_Part2_Sub101_25-Dec-2024.mat,105,64.0905733969164,73.6483238171705,-26.4781240843065,31.7816480276311,805,68.6508063523217,2.70308298035911,20.0098388584217,34.6506943069009,4.560232955405297,-70.9452408368114,46.4879629427282,2.869046279269803
106.0,1.0,1.8026522,ResultsProsodyExp_Part2_Sub101_25-Dec-2024.mat,106,8.24997818037539,75.3163658259655,81.8537450205248,-84.9844801917094,806,-64.7998316322124,31.4260149203412,-41.9114372979389,-64.9464074671911,-73.0498098125878,-43.8903509056243,-123.7651823184637,20.0380727245183
107.0,0.0,2.3209021,ResultsProsodyExp_Part2_Sub101_25-Dec-2024.mat,107,26.7555137826842,30.6480787900416,41.3137538124932,-14.82217322775,807,5.61422293902059,-39.8731351410389,43.4300073073975,18.0127303096161,-21.14129084366361,-70.5212139310805,2.1162534949043064,32.8349035373661
108.0,1.0,2.0814652,ResultsProsodyExp_Part2_Sub101_25-Dec-2024.mat,108,4.11735717558453,-5.11864127087394,-65.2857950854594,72.0707024983647,808,-70.4705077560988,5.89032155605468,-2.39704248274063,46.4326122522518,-74.58786493168333,11.00896282692862,62.88875260271877,-25.638090246112895
109.0,1.0,1.9162768,ResultsProsodyExp_Part2_Sub101_25-Dec-2024.mat,109,8.92934473302083,2.29913611568308,38.0337242100558,42.0120422375858,809,32.3512395775577,-1.20086536145952,-35.329384348519,-46.784059057992,23.42189484453687,-3.5000014771426,-73.3631085585748,-88.79610129557781
110.0,0.0,1.7799612,ResultsProsodyExp_Part2_Sub101_25-Dec-2024.mat,110,41.7209994780401,38.7964399064947,-7.1007431527956,-55.396332215328,810,-10.2481241529679,87.730078945655,7.56899002540568,-15.3914675428001,-51.969123631008,48.9336390391603,14.66973317820128,40.0048646725279
111.0,1.0,2.0494203,ResultsProsodyExp_Part2_Sub101_25-Dec-2024.mat,111,55.9933114157599,-36.7436784906241,-41.1627090559912,34.3209032154103,811,-50.3338886394443,79.1592387349345,-44.972682881644,-37.5096115596726,-106.3272000552042,115.90291722555861,-3.809973825652797,-71.83051477508289
112.0,1.0,3.6100774,ResultsProsodyExp_Part2_Sub101_25-Dec-2024.mat,112,-2.34940478004705,13.1234499262045,-55.7576696916932,87.5833521896628,812,76.3487196953086,14.1133488935004,-33.5761375311787,4.95532477399941,78.69812447535566,0.9898989672958987,22.1815321605145,-82.6280274156634
113.0,0.0,2.1542389,ResultsProsodyExp_Part2_Sub101_25-Dec-2024.mat,113,-84.9987949887726,-10.8416679299342,13.5980307935706,-34.5638577719017,813,24.9665543441141,0.259631318755893,59.1846781938976,-6.09156111448334,109.9653493328867,11.101299248690093,45.586647400326996,28.47229665741836
114.0,0.0,1.9157929,ResultsProsodyExp_Part2_Sub101_25-Dec-2024.mat,114,-55.9744739584601,40.8780860204026,-76.6697602771961,36.8483540657073,814,-62.0094412353211,64.8456413408216,49.0405970487992,-53.1812552150551,-6.034967276860996,23.967555320419002,125.7103573259953,-90.0296092807624
115.0,1.0,2.1944995,ResultsProsodyExp_Part2_Sub101_25-Dec-2024.mat,115,-50.4711016176854,87.9299650966827,41.322114027382,-50.7535253654275,815,-30.6699923153004,40.213941894415,-38.1878105435119,72.3848193653467,19.801109302384997,-47.71602320226769,-79.5099245708939,123.13834473077421
116.0,0.0,2.3616447,ResultsProsodyExp_Part2_Sub101_25-Dec-2024.mat,116,86.0422243728719,67.1192617475812,46.189294894031,41.9953892585451,816,65.3781583236224,66.8917537843863,37.0524441447046,74.0847208336038,-20.6640660492495,-0.22750796319490973,-9.136850749326399,32.089331575058694
117.0,0.0,2.3090732,ResultsProsodyExp_Part2_Sub101_25-Dec-2024.mat,117,15.6591132359768,-27.4805973976872,-12.8960648465515,-12.6577228302196,817,43.7119686824901,-0.993070859982669,55.085503107409,84.1007061324699,28.052855446513302,26.48752653770453,67.9815679539605,96.75842896268949
118.0,1.0,1.8816531,ResultsProsodyExp_Part2_Sub101_25-Dec-2024.mat,118,84.8980803098315,-39.0423161204841,86.4900632708888,52.9934697288375,818,11.1416730060397,-79.2127809018579,14.1640474429433,-5.09460926686567,-73.7564073037918,-40.170464781373795,-72.3260158279455,-58.08807899570317
119.0,0.0,2.9998299,ResultsProsodyExp_Part2_Sub101_25-Dec-2024.mat,119,-83.4811120511241,-19.0517627762416,84.5054171478061,-29.0939312543313,819,-34.9709935697137,34.1469346815334,68.7758320788306,-68.4578590028884,48.5101184814104,53.198697457775,-15.729585068975496,-39.3639277485571
120.0,1.0,2.551305,ResultsProsodyExp_Part2_Sub101_25-Dec-2024.mat,120,-55.1639890723643,64.0995245531714,23.8802228675444,53.7144740551045,820,-4.52406468615639,13.7767450510939,-83.9873683653445,-11.5942564757985,50.63992438620791,-50.32277950207751,-107.8675912328889,-65.308730530903
121.0,0.0,2.6885665,ResultsProsodyExp_Part2_Sub101_25-Dec-2024.mat,121,-0.996803819900652,9.88353944827257,-79.7074292567508,35.7510694987555,821,87.9544113065844,27.8073800692057,26.615601741503,8.50852685321371,88.95121512648505,17.923840620933127,106.3230309982538,-27.24254264554179
122.0,1.0,2.745075,ResultsProsodyExp_Part2_Sub101_25-Dec-2024.mat,122,22.8017605472697,48.0905351127687,53.1759265581303,73.8663510219847,822,-68.2487710880498,-34.6878110758382,38.2608610530404,-69.7733353020999,-91.05053163531952,-82.77834618860689,-14.915065505089899,-143.6396863240846
123.0,0.0,4.0423745,ResultsProsodyExp_Part2_Sub101_25-Dec-2024.mat,123,-40.7715263762576,41.6016218040584,83.7131449659472,-55.176859034192,823,-16.4545622036775,-11.8449680306373,66.2745463762478,32.1686127404227,24.316964172580096,-53.4465898346957,-17.438598589699396,87.34547177461471
124.0,1.0,1.8334518,ResultsProsodyExp_Part2_Sub101_25-Dec-2024.mat,124,58.3816962783815,70.8629978737524,69.4870955665682,63.1542710986568,824,-85.019377366092,-20.8182109501519,82.3626940997752,-86.7689007918489,-143.4010736444735,-91.68120882390431,12.875598533206997,-149.9231718905057
125.0,1.0,3.9995356,ResultsProsodyExp_Part2_Sub101_25-Dec-2024.mat,125,-67.4099304595255,9.38574708783611,19.996220855299,62.9156520611361,825,-34.1200131323445,61.1310965383607,-17.1187040401399,13.7790813977324,33.289917327180994,51.74534945052459,-37.114924895438904,-49.1365706634037
126.0,0.0,3.0303951,ResultsProsodyExp_Part2_Sub101_25-Dec-2024.mat,126,89.0102004532074,80.9933869852259,-32.644665286773,-34.6634817432049,826,85.5959932703009,-12.5809407865943,-7.19508877927738,12.4095387797252,-3.414207182906509,-93.5743277718202,25.449576507495618,47.07302052293009
127.0,1.0,1.9791276,ResultsProsodyExp_Part2_Sub101_25-Dec-2024.mat,127,20.7197209273331,4.95691597937443,75.5900439705002,41.6179772331546,827,39.7352673083676,-22.353138648431,10.8515553339622,-48.1691506614475,19.015546381034497,-27.310054627805428,-64.73848863653801,-89.7871278946021
128.0,1.0,2.5643308,ResultsProsodyExp_Part2_Sub101_25-Dec-2024.mat,128,-15.8309100214191,75.5045966612441,4.17665643086,-39.7549773332889,828,44.4150221131968,-14.983807135312,-72.1576402532596,38.6052808707935,60.2459321346159,-90.4884037965561,-76.33429668411961,78.3602582040824
129.0,0.0,2.4502988,ResultsProsodyExp_Part2_Sub101_25-Dec-2024.mat,129,81.3332368960805,-53.630692854246,-12.3316881987723,-29.3578526861839,829,21.3214522257116,31.5208881107862,60.250626527157,-30.7797570921419,-60.01178467036891,85.1515809650322,72.58231472592931,-1.4219044059579993
130.0,1.0,2.2183972,ResultsProsodyExp_Part2_Sub101_25-Dec-2024.mat,130,14.0352320579653,-59.5022764611277,88.6454584968174,20.5516436096129,830,-6.13851373511625,57.2337127608023,-36.6463256365672,-9.71201530628535,-20.17374579308155,116.73598922193,-125.2917841333846,-30.263658915898247
131.0,0.0,3.8687149,ResultsProsodyExp_Part2_Sub101_25-Dec-2024.mat,131,-0.941356682786903,5.70948745463342,-60.3770083908928,-68.7155160626819,831,-42.7572509549407,29.529889518219,68.9359387028576,-48.912947985139,-41.8158942721538,23.820402063585583,129.31294709375038,19.8025680775429
132.0,1.0,2.5332653,ResultsProsodyExp_Part2_Sub101_25-Dec-2024.mat,132,-1.87147008101312,-21.2609949080052,-20.8265415693851,83.3124762313621,832,37.3430788967543,61.6872111964714,-54.9526955816169,-42.5564931920658,39.21454897776742,82.9482061044766,-34.1261540122318,-125.8689694234279
133.0,1.0,2.315561,ResultsProsodyExp_Part2_Sub101_25-Dec-2024.mat,133,-18.6725980099473,81.3803463873109,53.4808358147725,13.2818200792186,833,38.6811596376317,68.1069095342705,45.0002051679585,-82.7272112436243,57.353757647579,-13.273436853040394,-8.480630646814,-96.0090313228429
134.0,0.0,2.4926829,ResultsProsodyExp_Part2_Sub101_25-Dec-2024.mat,134,-4.47226304804269,-65.5246034288271,-23.4712430352513,-74.7534989338337,834,36.0835755641154,-53.6898188206657,-51.1556325641828,76.4144761535761,40.55583861215809,11.834784608161407,-27.6843895289315,151.1679750874098
135.0,1.0,1.958395,ResultsProsodyExp_Part2_Sub101_25-Dec-2024.mat,135,50.9695267785786,-32.362484031596,74.6626266722769,-24.6608924042387,835,-54.6557200305596,48.0146811425927,-35.539576090192,-0.0558608971106314,-105.62524680913819,80.37716517418869,-110.2022027624689,24.60503150712807
136.0,1.0,2.1432706,ResultsProsodyExp_Part2_Sub101_25-Dec-2024.mat,136,14.4129761487907,-29.7770740904631,-89.1945598061411,48.5188711477621,836,2.17402684877095,-79.2637996345312,4.82042971900493,-36.6905879751579,-12.23894930001975,-49.48672554406809,94.01498952514604,-85.20945912292
137.0,0.0,2.0217947,ResultsProsodyExp_Part2_Sub101_25-Dec-2024.mat,137,-25.6775728489256,-73.363954955299,-22.7396134599599,-8.72703736587956,837,-77.410018745576,46.3607464700975,0.412997564821982,11.870227874398,-51.7324458966504,119.72470142539649,23.152611024781883,20.597265240277558
138.0,1.0,2.1901872,ResultsProsodyExp_Part2_Sub101_25-Dec-2024.mat,138,26.6939214906256,-55.3306632801816,-36.5045316819549,-56.5757746819649,838,-5.7167204553233,-28.3279806822849,15.5107596700342,-7.29866857100533,-32.410641945948896,27.002682597896698,52.015291351989106,49.27710611095957
139.0,0.0,2.1694055,ResultsProsodyExp_Part2_Sub101_25-Dec-2024.mat,139,17.7216166809521,-83.1881191460508,60.8560421639407,-87.7385096491618,839,42.6130150986172,-12.3254701399668,31.3453228575483,-85.2592572631457,24.891398417665098,70.862649006084,-29.5107193063924,2.4792523860160998
140.0,1.0,2.3113818,ResultsProsodyExp_Part2_Sub101_25-Dec-2024.mat,140,-23.4783457265271,-71.1834059998782,55.9588097597919,-41.1361946284519,840,47.0347511542465,-10.623511813122,26.9825855924413,-40.6487273280639,70.5130968807736,60.5598941867562,-28.976224167350598,0.4874673003879977
141.0,1.0,1.8836983,ResultsProsodyExp_Part2_Sub101_25-Dec-2024.mat,141,-72.8462122995833,-18.2329017366856,7.44510215775776,-9.93231167151219,841,-71.6818203167625,-83.2278188548335,-44.4204632960914,-11.3298193844069,1.1643919828208027,-64.9949171181479,-51.86556545384916,-1.3975077128947095
142.0,0.0,2.0860093,ResultsProsodyExp_Part2_Sub101_25-Dec-2024.mat,142,-9.57373011003208,81.6101591541488,-12.6361143805611,26.1831720046719,842,80.4511581616265,56.7513411020412,-1.28795801224147,-10.4908537352693,90.02488827165857,-24.8588180521076,11.34815636831963,-36.6740257399412
143.0,1.0,2.1052347,ResultsProsodyExp_Part2_Sub101_25-Dec-2024.mat,143,7.675923541462,55.4504823617936,-0.332842666115759,-40.9644501538722,843,-13.5082506801188,40.8998420923135,-8.86782354452488,60.4506166670805,-21.1841742215808,-14.550640269480098,-8.53498087840912,101.4150668209527
144.0,1.0,2.2021194,ResultsProsodyExp_Part2_Sub101_25-Dec-2024.mat,144,-32.6622288210766,10.7784255607402,48.3261271653581,-57.3936142701319,844,-62.9801329268649,34.0795953899953,-60.815991853447,70.8707151340369,-30.317904105788294,23.301169829255098,-109.1421190188051,128.2643294041688
145.0,0.0,2.1465505,ResultsProsodyExp_Part2_Sub101_25-Dec-2024.mat,145,-18.1157378253957,35.4353534028459,53.3408238626963,-55.9684633117888,845,-25.0587349989654,6.53656607736032,29.8130155534164,-19.2641122131933,-6.942997173569697,-28.89878732548558,-23.527808309279898,36.7043510985955
146.0,1.0,2.1021896,ResultsProsodyExp_Part2_Sub101_25-Dec-2024.mat,146,-22.7862563726339,-28.1660835167807,-37.3004335588319,-2.82786257515513,846,-80.7380528479947,-35.1040820567662,51.4083013640562,-17.7572843101311,-57.951796475360794,-6.937998539985504,88.7087349228881,-14.929421734975971
147.0,1.0,2.4454766,ResultsProsodyExp_Part2_Sub101_25-Dec-2024.mat,147,-23.4806433838931,75.3283858922204,-79.0936985347006,-45.3381439009489,847,65.3996416059482,71.0215702209177,9.57220960295659,-86.3021046454196,88.8802849898413,-4.306815671302701,88.66590813765718,-40.963960744470704
148.0,0.0,2.2013054,ResultsProsodyExp_Part2_Sub101_25-Dec-2024.mat,148,39.8562269834126,-36.2044076100906,5.01867539668703,-70.2839471844568,848,-28.4783018401073,18.1569945325913,-62.514048037105,37.615224691224,-68.33452882351989,54.3614021426819,-67.53272343379203,107.8991718756808
149.0,1.0,2.023582,ResultsProsodyExp_Part2_Sub101_25-Dec-2024.mat,149,-28.3061276052581,5.47231615537459,-3.86172532796275,27.0134502622136,849,-48.4333319970335,-18.6735531018821,83.860634097938,38.8965664974509,-20.127204391775397,-24.145869257256688,87.72235942590075,11.8831162352373
150.0,1.0,2.2540038,ResultsProsodyExp_Part2_Sub101_25-Dec-2024.mat,150,32.6913454549489,72.4123070977291,-38.9559608859849,67.039563009495,850,-26.9859313189686,-30.6752875048486,77.7143863259069,33.4197194734636,-59.6772767739175,-103.0875946025777,116.6703472118918,-33.6198435360314
151.0,1.0,2.3824938,ResultsProsodyExp_Part2_Sub101_25-Dec-2024.mat,151,59.5557563255364,-49.1278328609213,57.8942317918837,81.6666823586746,851,-13.2107676654455,53.9332584301661,-50.7643338827991,43.0728647818996,-72.7665239909819,103.0610912910874,-108.65856567468279,-38.59381757677501
152.0,1.0,2.101953,ResultsProsodyExp_Part2_Sub101_25-Dec-2024.mat,152,-28.8295089090105,11.9121971786621,38.6914199167165,79.2991486362421,852,-39.3930898899658,-6.28752724562373,40.9749544256943,-15.2310227483379,-10.563580980955301,-18.19972442428583,2.2835345089778016,-94.53017138458
153.0,0.0,1.9874879,ResultsProsodyExp_Part2_Sub101_25-Dec-2024.mat,153,-67.4472307988631,-62.9212822055786,-60.9588318540592,7.23433400896491,853,-0.0425757448130978,32.0576873438626,79.7311321865063,12.2609763849263,67.40465505405001,94.97896954944119,140.68996404056548,5.02664237596139
154.0,1.0,1.9801465,ResultsProsodyExp_Part2_Sub101_25-Dec-2024.mat,154,-42.5405995146457,46.008825038163,-69.3070767311544,65.7345312276116,854,-27.6357805275825,-88.0763241714885,-5.46687699313903,44.6495023267742,14.904818987063198,-134.0851492096515,63.840199738015365,-21.0850289008374
155.0,1.0,2.1562681,ResultsProsodyExp_Part2_Sub101_25-Dec-2024.mat,155,18.6002784141602,70.469520695268,-55.930724447694,8.55836599870153,855,11.7439220205157,-10.4882485324901,-54.4129190158558,16.7965203295322,-6.8563563936445,-80.9577692277581,1.5178054318381982,8.23815433083067
156.0,1.0,2.047622,ResultsProsodyExp_Part2_Sub101_25-Dec-2024.mat,156,-17.9538657210504,74.614685061373,31.2183522589397,-44.5334743563922,856,-62.0789514411216,-41.4315852418287,-54.5454312952808,-55.1593059474029,-44.125085720071205,-116.0462703032017,-85.7637835542205,-10.625831591010702
157.0,1.0,2.0252373,ResultsProsodyExp_Part2_Sub101_25-Dec-2024.mat,157,-75.2091359031752,-29.5744130303802,46.1345405406441,-66.8125474857674,857,-24.8978391380605,-86.7549776308319,30.5987988276631,1.75341744950712,50.31129676511469,-57.1805646004517,-15.535741712981004,68.56596493527452
158.0,0.0,2.3556892,ResultsProsodyExp_Part2_Sub101_25-Dec-2024.mat,158,37.4768450521231,-75.6873833373945,1.65250700656689,46.6811264061221,858,-22.0511293663672,33.2872141320918,84.4490470532149,37.391820453262,-59.5279744184903,108.9745974694863,82.796540046648,-9.289305952860097
159.0,1.0,2.0525902,ResultsProsodyExp_Part2_Sub101_25-Dec-2024.mat,159,85.3110025703853,-16.0623029788603,31.7382275040285,-41.3103042048609,859,61.8476159858197,-56.7041623475293,41.3978502296746,14.9216892643472,-23.463386584565598,-40.641859368669,9.659622725646102,56.2319934692081
160.0,1.0,2.2318315,ResultsProsodyExp_Part2_Sub101_25-Dec-2024.mat,160,32.6628583618267,-59.8094414151683,-9.51570567113707,-75.1260636299139,860,-46.1200261454334,11.43421657675,-44.9450320367495,-47.9910532804376,-78.78288450726009,71.2436579919183,-35.42932636561243,27.135010349476303
161.0,1.0,2.0818828,ResultsProsodyExp_Part2_Sub101_25-Dec-2024.mat,161,-0.641662541723526,65.2193269682013,35.8472037771867,-4.34635812989799,861,-3.73708477626447,-16.9632082403086,-21.1031925842264,-52.007271111145,-3.095422234540944,-82.1825352085099,-56.9503963614131,-47.66091298124701
162.0,0.0,2.4422491,ResultsProsodyExp_Part2_Sub101_25-Dec-2024.mat,162,-25.9484158203915,77.4637291489056,-80.5637294608757,34.3337178498727,862,26.0947739314561,-29.9915923862143,-26.4713724375871,9.79041699243778,52.0431897518476,-107.45532153511991,54.092357023288606,-24.543300857434918
163.0,0.0,2.5661075,ResultsProsodyExp_Part2_Sub101_25-Dec-2024.mat,163,-1.6853045521317,0.698684449832347,-63.1897750329172,12.2471559241798,863,77.3254333202714,-45.4982884615701,38.1638945369855,-14.5966470060816,79.0107378724031,-46.19697291140245,101.3536695699027,-26.8438029302614
164.0,0.0,2.2239095,ResultsProsodyExp_Part2_Sub101_25-Dec-2024.mat,164,15.7783272295036,-53.5669687971494,-82.8881950681066,-68.4048380451631,864,-48.4674797080902,-18.9848920890218,-59.8196825862301,76.4238695563009,-64.2458069375938,34.5820767081276,23.068512481876496,144.828707601464
165.0,0.0,2.6888716,ResultsProsodyExp_Part2_Sub101_25-Dec-2024.mat,165,-63.0012580123312,-81.3844903517609,-55.9759858601908,85.224212974481,865,-22.36697716584,-44.8988781849582,45.6830084492478,24.2585498562099,40.634280846491194,36.4856121668027,101.6589943094386,-60.96566311827111
166.0,1.0,1.7954781,ResultsProsodyExp_Part2_Sub101_25-Dec-2024.mat,166,54.675357251704,-45.3611293147462,-42.3986824177096,-34.194548746432,866,-2.78393330036523,-25.5322485833955,27.6646789515272,-82.8451067471164,-57.45929055206923,19.8288807313507,70.0633613692368,-48.650558000684406
167.0,0.0,2.3268526,ResultsProsodyExp_Part2_Sub101_25-Dec-2024.mat,167,-34.2937534822867,58.8957501395608,-44.391187162347,41.2850836941519,867,14.8201784891306,70.8722070441237,-28.4369653934249,-28.28560908154,49.113931971417294,11.976456904562895,15.954221768922103,-69.5706927756919
168.0,0.0,1.995948,ResultsProsodyExp_Part2_Sub101_25-Dec-2024.mat,168,-82.8477885299478,16.308645681055,-50.7228179119254,-52.864680172842,868,23.322914601976,85.6023168065478,-0.19113346273694,-24.3618905004073,106.1707031319238,69.2936711254928,50.531684449188454,28.5027896724347
169.0,0.0,1.894786,ResultsProsodyExp_Part2_Sub101_25-Dec-2024.mat,169,-85.8454336358479,-61.3347730225911,-85.0963756838446,-21.6563658341236,869,12.2785885470771,52.9096590335158,-39.0375128181285,17.7750715039313,98.12402218292499,114.2444320561069,46.0588628657161,39.431437338054906
170.0,0.0,2.8803865,ResultsProsodyExp_Part2_Sub101_25-Dec-2024.mat,170,18.9503599590485,63.5460905848379,21.7472595602018,-46.5424552634466,870,-43.0060692387045,-42.260291256561,7.38328158889796,-86.6713938055833,-61.956429197752996,-105.80638184139889,-14.363977971303841,-40.12893854213671
171.0,0.0,3.1058915,ResultsProsodyExp_Part2_Sub101_25-Dec-2024.mat,171,-73.8641877616543,33.3411871057442,80.6616282028344,-9.69638944017888,871,37.5678617467262,-2.44829428021486,0.629392670115261,-89.4278655198315,111.43204950838052,-35.78948138595906,-80.03223553271913,-79.73147607965262
172.0,0.0,3.6718804,ResultsProsodyExp_Part2_Sub101_25-Dec-2024.mat,172,22.3042031517428,-0.543623934743269,13.8726616305179,25.853428631844,872,-79.9993447374895,74.4079002411081,71.4117900879656,-82.4711813565369,-102.30354788923229,74.95152417585136,57.5391284574477,-108.3246099883809
173.0,1.0,1.7889884,ResultsProsodyExp_Part2_Sub101_25-Dec-2024.mat,173,4.94239829807704,75.9144471868425,-65.5918572167665,79.2678427430627,873,62.2959511333408,-32.1697672154074,-60.2373202225779,-42.1096934454902,57.35355283526376,-108.0842144022499,5.354536994188599,-121.37753618855291
174.0,1.0,2.3704204,ResultsProsodyExp_Part2_Sub101_25-Dec-2024.mat,174,37.6559913433023,52.6084495706966,1.83226711215637,-67.4078986765561,874,45.006448515448,9.62626127162516,-41.2894847919509,-60.1197431498697,7.350457172145703,-42.98218829907144,-43.12175190410727,7.288155526686403
175.0,1.0,2.2176444,ResultsProsodyExp_Part2_Sub101_25-Dec-2024.mat,175,24.167022451001,33.272290441739,1.87728807835328,1.87093648205001,875,66.951594757519,-28.6931051205167,13.5695356683431,-43.7935425657603,42.784572306518,-61.96539556225571,11.69224758998982,-45.66447904781031
176.0,1.0,1.6425402,ResultsProsodyExp_Part2_Sub101_25-Dec-2024.mat,176,24.3034217963861,75.4065184872225,54.8427522939296,-34.4524566990386,876,-46.0373967818535,-77.6364751337028,7.45989061210548,0.918141241329377,-70.3408185782396,-153.0429936209253,-47.38286168182412,35.37059794036798
177.0,1.0,1.8463501,ResultsProsodyExp_Part2_Sub101_25-Dec-2024.mat,177,-42.8601034032949,-53.1120096338034,45.9451807647889,70.3398821980962,877,-28.9928715597753,-35.7345989298548,74.6766596928425,-14.9784850846565,13.867231843519601,17.377410703948605,28.731478928053605,-85.3183672827527
178.0,0.0,2.0840603,ResultsProsodyExp_Part2_Sub101_25-Dec-2024.mat,178,-35.8543516557619,-26.3622727463778,-72.3127182050635,-2.79922417016411,878,-64.9698318067098,18.5322035297838,-28.7175575169614,-70.1518824552796,-29.115480150947903,44.8944762761616,43.595160688102105,-67.3526582851155
179.0,1.0,2.0208928,ResultsProsodyExp_Part2_Sub101_25-Dec-2024.mat,179,-28.1499073035236,-61.003431503704,-7.09032857555982,69.6481155285917,879,3.10619853275579,3.85368384473061,-71.6610461209291,39.4806603756526,31.256105836279392,64.8571153484346,-64.57071754536928,-30.167455152939105
180.0,0.0,3.0646546,ResultsProsodyExp_Part2_Sub101_25-Dec-2024.mat,180,-49.4766837590903,-87.5130294996787,25.5556712349753,-87.3857765797963,880,-11.1038878952412,73.0062579111269,11.2404712140469,-83.9323142699057,38.3727958638491,160.5192874108056,-14.3152000209284,3.4534623098905968
181.0,0.0,2.0313873,ResultsProsodyExp_Part2_Sub101_25-Dec-2024.mat,181,40.6192133132375,-54.6049369487277,-28.4177661170497,-61.7911427249945,881,81.8350387186531,30.4821060561178,67.9214694388379,-53.068600793101,41.21582540541559,85.0870430048455,96.3392355558876,8.722541931893502
182.0,1.0,2.1963719,ResultsProsodyExp_Part2_Sub101_25-Dec-2024.mat,182,-17.380786060638,88.6001611325387,-83.7484204249133,80.6661230577397,882,28.1049135757686,12.537106160933,-13.7322950781949,62.475669206786,45.48569963640659,-76.06305497160571,70.01612534671841,-18.190453850953695
183.0,0.0,3.7223227,ResultsProsodyExp_Part2_Sub101_25-Dec-2024.mat,183,-13.5733560685742,44.0566794610681,-12.4156074962298,81.409831836729,883,-72.2845115856052,9.24581601605746,-64.986715468298,24.7036547501488,-58.711155517031,-34.81086344501064,-52.571107972068205,-56.7061770865802
184.0,0.0,2.603,ResultsProsodyExp_Part2_Sub101_25-Dec-2024.mat,184,87.8335784580504,13.4232858312377,50.7774805969254,-42.2662211803714,884,58.0019663425173,-9.38390728344473,-11.3683517038056,71.1532327998365,-29.831612115533098,-22.80719311468243,-62.145832300731,113.4194539802079
185.0,1.0,2.6312062,ResultsProsodyExp_Part2_Sub101_25-Dec-2024.mat,185,-17.7575381886468,-11.3438854819318,-70.608100832329,88.4692095986965,885,2.19722095908188,-12.3331367726342,-41.2066051438488,-56.6856464428359,19.95475914772868,-0.9892512907024003,29.401495688480203,-145.1548560415324
186.0,1.0,2.274686,ResultsProsodyExp_Part2_Sub101_25-Dec-2024.mat,186,-3.15633678391628,-53.2580226176132,-27.6148775163344,20.5834667884917,886,-82.7691777323549,51.0907824043921,-83.792932665943,-1.21276896787623,-79.61284094843863,104.34880502200531,-56.178055149608596,-21.79623575636793
187.0,0.0,2.3565684,ResultsProsodyExp_Part2_Sub101_25-Dec-2024.mat,187,72.8184590908753,-58.4141379803786,-13.8710156126317,32.964483629061,887,14.409178199891,-43.0634125969507,65.1632304299621,53.9252031026272,-58.40928089098429,15.3507253834279,79.0342460425938,20.9607194735662
188.0,1.0,2.5367664,ResultsProsodyExp_Part2_Sub101_25-Dec-2024.mat,188,31.2929576564053,-20.5107611429035,27.1934536558307,-19.8562338305371,888,7.74879224513031,52.4071479399739,-85.7821184582865,41.3001252190672,-23.54416541127499,72.9179090828774,-112.9755721141172,61.1563590496043
189.0,0.0,2.0494797,ResultsProsodyExp_Part2_Sub101_25-Dec-2024.mat,189,-12.1379753882422,-47.6478268629006,-58.3013823779295,52.1569668890114,889,40.0663671549111,47.5240004445561,-12.3936995313611,16.5342571454506,52.2043425431533,95.17182730745671,45.9076828465684,-35.622709743560804
190.0,0.0,10.1819423,ResultsProsodyExp_Part2_Sub101_25-Dec-2024.mat,190,38.8141068997064,-49.58852743182,-77.7112245599382,23.7545280315057,890,-53.2357145635885,-40.7719604081211,-83.9429957528519,45.0981466797655,-92.0498214632949,8.816567023698894,-6.231771192913698,21.3436186482598
191.0,0.0,35.4135556,ResultsProsodyExp_Part2_Sub101_25-Dec-2024.mat,191,-84.8116215580012,-29.1247748126319,-64.1893053759264,27.3322654649822,891,-68.58891397696,-48.4165653574238,-31.6141844361643,-22.168411297821,16.222707581041206,-19.291790544791898,32.575120939762094,-49.500676762803195
192.0,0.0,1.9044117,ResultsProsodyExp_Part2_Sub101_25-Dec-2024.mat,192,25.2052741321761,-89.5303447691598,24.8696414213473,14.2316970249391,892,11.9607707505642,-55.9872921125066,87.9301442175472,-34.7388896897923,-13.244503381611901,33.543052656653195,63.0605027961999,-48.970586714731404
193.0,0.0,9.1385008,ResultsProsodyExp_Part2_Sub101_25-Dec-2024.mat,193,-62.1999643371008,-13.0305074026919,10.6044964652409,86.1821429389494,893,6.28559088567653,-11.759156091541,-54.6072347682394,-67.0430275293946,68.48555522277734,1.2713513111508998,-65.2117312334803,-153.225170468344
194.0,1.0,1.9519031,ResultsProsodyExp_Part2_Sub101_25-Dec-2024.mat,194,-63.1878662066788,87.1655609153998,19.6144135013275,-32.508729495873,894,23.6850150764684,-38.5119778079591,4.60110877135547,-88.146237016922,86.8728812831472,-125.6775387233589,-15.013304729972031,-55.637507521049
195.0,1.0,2.3653211,ResultsProsodyExp_Part2_Sub101_25-Dec-2024.mat,195,44.690887131126,4.93408910477074,50.2069003797718,63.9375294562343,895,13.2558142878215,48.0903697753502,6.26268071670978,24.5315367260354,-31.435072843304496,43.156280670579456,-43.94421966306202,-39.4059927301989
196.0,0.0,2.2210957,ResultsProsodyExp_Part2_Sub101_25-Dec-2024.mat,196,46.1383093833936,10.8595890518381,20.3527900981247,-66.0066275665407,896,-23.7988898810479,46.970220425083,-29.5227134446113,-30.7548962657358,-69.93719926444149,36.1106313732449,-49.875503542736,35.251731300804906
197.0,1.0,2.1089842,ResultsProsodyExp_Part2_Sub101_25-Dec-2024.mat,197,-67.9647288932368,22.121240068534,6.48212630423466,-14.3881804386528,897,44.9284770662801,3.30723429108141,-57.5749858212765,-70.8402976539003,112.8932059595169,-18.81400577745259,-64.05711212551115,-56.4521172152475
198.0,0.0,2.0438356,ResultsProsodyExp_Part2_Sub101_25-Dec-2024.mat,198,53.2317260162958,-71.4441154746369,-7.12913514462198,20.8405831704249,898,-19.4163774637948,-35.388092720971,-63.3054164839654,-54.2540843457922,-72.6481034800906,36.0560227536659,-56.17628133934342,-75.0946675162171
199.0,1.0,2.0614622,ResultsProsodyExp_Part2_Sub101_25-Dec-2024.mat,199,-67.5476235605829,-63.0088102360988,58.2078841762377,-2.02661348820671,899,-37.44615926564,2.92253394768294,13.0888190987663,-56.1428293680351,30.101464294942907,65.93134418378175,-45.1190650774714,-54.11621587982839
200.0,0.0,2.36754,ResultsProsodyExp_Part2_Sub101_25-Dec-2024.mat,200,31.0814087024508,-60.2391391572365,10.063144135801,69.8177504437327,900,-84.5988194124487,-84.444608259792,82.6414036371554,81.4401968040615,-115.6802281148995,-24.205469102555504,72.57825950135441,11.622446360328794
201.0,1.0,1.9506625,ResultsProsodyExp_Part3_Sub101_25-Dec-2024.mat,201,-47.6734172250888,-49.0977323659436,-38.0453065248285,-82.4942698233945,901,20.9087020957397,-64.0034747933319,-78.2417671797201,38.5171382328118,68.5821193208285,-14.905742427388304,-40.1964606548916,121.0114080562063
202.0,1.0,1.6776028,ResultsProsodyExp_Part3_Sub101_25-Dec-2024.mat,202,57.4627126264847,78.5495689715204,23.2068277539225,-53.4144365994341,902,-9.09703615704975,54.1454268728082,60.397687885089,69.0292024038983,-66.55974878353445,-24.4041420987122,37.1908601311665,122.4436390033324
203.0,1.0,2.0008111,ResultsProsodyExp_Part3_Sub101_25-Dec-2024.mat,203,87.2478880466002,26.1566869563451,23.8705570364149,-40.6315814874997,903,35.6223024760189,-22.3599292357013,35.4894249919889,62.7155988132967,-51.62558557058129,-48.5166161920464,11.618867955573997,103.3471803007964
204.0,1.0,4.5178212,ResultsProsodyExp_Part3_Sub101_25-Dec-2024.mat,204,31.9690500569322,-44.6847580632611,18.1554932738655,3.40378055246342,904,-60.0706564612744,21.1183958628695,-58.4654377637642,39.7354572077141,-92.0397065182066,65.8031539261306,-76.6209310376297,36.331676655250675
205.0,0.0,3.8918361,ResultsProsodyExp_Part3_Sub101_25-Dec-2024.mat,205,14.5011997171821,52.5428001459759,-52.2563292344233,62.0964172946534,905,-63.2103007681298,51.1790393051319,78.4080210422759,89.758191747374,-77.7115004853119,-1.3637608408440016,130.6643502766992,27.6617744527206
206.0,1.0,2.1376915,ResultsProsodyExp_Part3_Sub101_25-Dec-2024.mat,206,-40.5239576243253,40.8051496184076,10.9693859852419,82.3892747267142,906,23.1476719624492,55.570345576377,-41.4535675419951,2.26731626362536,63.6716295867745,14.765195957969404,-52.422953527237,-80.12195846308884
207.0,0.0,1.8351822,ResultsProsodyExp_Part3_Sub101_25-Dec-2024.mat,207,89.551865975977,-83.1199768827788,-59.1404000554691,38.9885041860447,907,42.1322801057856,67.0467563388127,-18.0737658881739,4.81280398539625,-47.4195858701914,150.1667332215915,41.066634167295206,-34.17570020064845
208.0,1.0,1.8933773,ResultsProsodyExp_Part3_Sub101_25-Dec-2024.mat,208,-30.5626692802888,11.4235011210689,15.2548760554787,-86.4378719376343,908,12.3789667168001,54.6295367945011,-57.2949547601643,-73.555204358412,42.9416359970889,43.2060356734322,-72.549830815643,12.8826675792223
209.0,1.0,1.8183282,ResultsProsodyExp_Part3_Sub101_25-Dec-2024.mat,209,7.87461307304448,80.3180077242579,81.0075446906781,-13.971293019747,909,27.8099412569289,-63.2086532542575,6.10761151545598,-50.673524267452,19.935328183884423,-143.5266609785154,-74.89993317522212,-36.702231247705
210.0,1.0,2.5666978,ResultsProsodyExp_Part3_Sub101_25-Dec-2024.mat,210,-32.0347144566951,-66.9598020792732,-30.5203311262201,12.0576982994588,910,-24.1896327817442,89.0741679856498,20.5763881441883,24.6080052888378,7.845081674950897,156.03397006492298,51.0967192704084,12.550306989379
211.0,1.0,1.7924909,ResultsProsodyExp_Part3_Sub101_25-Dec-2024.mat,211,45.4456329336358,89.5720344192945,-44.2715266323317,31.3644055732218,911,-26.0846825750922,-61.43809395847,67.8909460301362,42.1561739704154,-71.530315508728,-151.0101283777645,112.1624726624679,10.791768397193604
212.0,0.0,1.9415044,ResultsProsodyExp_Part3_Sub101_25-Dec-2024.mat,212,-67.6932822162975,-89.1614923476386,-3.23881173610843,-34.6879654105606,912,-33.6322590479317,81.3801127320499,33.3422768623132,76.9478721221301,34.06102316836581,170.5416050796885,36.58108859842163,111.63583753269069
213.0,0.0,2.0064041,ResultsProsodyExp_Part3_Sub101_25-Dec-2024.mat,213,-29.085649287641,-41.9058261118269,-30.8457001704147,11.478917572199,913,15.4602839103695,-58.9905179870313,20.2492313633218,-26.5759953355179,44.5459331980105,-17.084691875204406,51.0949315337365,-38.0549129077169
214.0,1.0,2.0354452,ResultsProsodyExp_Part3_Sub101_25-Dec-2024.mat,214,54.5697162820649,-36.9587042088723,-1.12474103029563,23.8694098554989,914,-36.9125970277867,-42.0264410761588,-0.229962851984036,-14.4656640727832,-91.4823133098516,-5.067736867286499,0.894778178311594,-38.3350739282821
215.0,0.0,2.0400488,ResultsProsodyExp_Part3_Sub101_25-Dec-2024.mat,215,52.7464124800759,7.63714945068116,-56.5240151831234,21.9467084079105,915,-11.9228059742264,-28.6995350602864,78.9210146866649,-0.426756861547736,-64.6692184543023,-36.33668451096756,135.4450298697883,-22.373465269458237
216.0,0.0,2.0623803,ResultsProsodyExp_Part3_Sub101_25-Dec-2024.mat,216,21.09826209224,-59.7726675035958,-10.4147953433607,-9.57122364868283,916,36.1802383993475,4.76881697664173,44.1966287998815,-53.9025861200248,15.081976307107503,64.54148448023753,54.6114241432422,-44.33136247134197
217.0,0.0,1.9372613,ResultsProsodyExp_Part3_Sub101_25-Dec-2024.mat,217,-52.3342816294258,-38.9928522183901,-69.3334326708267,15.0969125568266,917,-52.1031814867835,0.553270796053744,66.036655692409,35.9164968617831,0.23110014264230472,39.54612301444384,135.3700883632357,20.8195843049565
218.0,1.0,1.9259409,ResultsProsodyExp_Part3_Sub101_25-Dec-2024.mat,218,-53.6281585755917,11.3817162293897,-5.64876375072068,-38.2110983400312,918,-55.3522051789937,43.8873303889571,-49.6035958297494,76.2020306909872,-1.7240466034020017,32.5056141595674,-43.95483207902872,114.4131290310184
219.0,0.0,1.8160271,ResultsProsodyExp_Part3_Sub101_25-Dec-2024.mat,219,23.0897291560748,85.4926475290365,-41.8822243099868,48.5055908281014,919,-8.17351610755973,-29.8520640508157,54.2520059110638,51.0988925531288,-31.26324526363453,-115.3447115798522,96.1342302210506,2.593301725027402
220.0,0.0,2.2832609,ResultsProsodyExp_Part3_Sub101_25-Dec-2024.mat,220,-32.3470147773378,-46.0692768415828,-13.3030590578162,-63.8186261739847,920,11.678237448711,-29.4417583012021,48.7939794156598,17.0607402367825,44.0252522260488,16.6275185403807,62.097038473476,80.8793664107672
221.0,1.0,1.9532022,ResultsProsodyExp_Part3_Sub101_25-Dec-2024.mat,221,-85.6679083282844,-56.5799419107153,62.9669840008522,-45.3967059223186,921,21.3041485493977,53.0271628877825,72.9163456435731,-0.537687160122934,106.97205687768209,109.6071047984978,9.949361642720895,44.85901876219567
222.0,1.0,1.8826402,ResultsProsodyExp_Part3_Sub101_25-Dec-2024.mat,222,29.2918524383568,72.2983576222,20.4034420217453,-7.15983958019522,922,-57.5207358106869,-34.2716860309784,-42.4774544870276,41.3375874837942,-86.8125882490437,-106.5700436531784,-62.8808965087729,48.49742706398942
223.0,0.0,1.6919266,ResultsProsodyExp_Part3_Sub101_25-Dec-2024.mat,223,-35.9467943440733,-63.2529318004402,-36.7968132223493,-19.5923097856454,923,52.5906429303636,80.8615121630662,-46.9969362362112,26.3131529374242,88.5374372744369,144.1144439635064,-10.200123013861898,45.905462723069604
224.0,0.0,2.0136953,ResultsProsodyExp_Part3_Sub101_25-Dec-2024.mat,224,-60.0490025740445,-1.23880525878856,-50.0370773870197,49.2762723265614,924,-86.1076812531943,-48.6151954027075,11.3488390469706,79.1767970650137,-26.0586786791498,-47.37639014391894,61.3859164339903,29.900524738452305
225.0,1.0,2.9543256,ResultsProsodyExp_Part3_Sub101_25-Dec-2024.mat,225,-38.9593171582507,21.2178189501296,-75.5843896054884,-9.48949028498207,925,-7.66408031260259,-24.7775502258413,-57.1608194307946,-65.4843564089747,31.29523684564811,-45.9953691759709,18.4235701746938,-55.99486612399264
226.0,1.0,2.0000526,ResultsProsodyExp_Part3_Sub101_25-Dec-2024.mat,226,-65.6705822132008,63.6352901731319,55.4442852642859,-53.677597823837,926,-12.3926864220197,-23.7827265579403,-20.4218715503008,18.1290070609935,53.2778957911811,-87.4180167310722,-75.8661568145867,71.8066048848305
227.0,1.0,1.9139268,ResultsProsodyExp_Part3_Sub101_25-Dec-2024.mat,227,-80.9361374947917,-53.5630066295757,58.2782578411398,-86.3847298407278,927,70.5361637502661,55.8091932352425,-14.2727631785823,27.0074889077907,151.4723012450578,109.37219986481821,-72.5510210197221,113.3922187485185
228.0,0.0,40.0310952,ResultsProsodyExp_Part3_Sub101_25-Dec-2024.mat,228,-14.5482647500731,70.7487035945212,-36.2627743848881,65.7203493099566,928,1.05175020263926,-14.0324618740399,-19.5760124546645,28.1911253384287,15.60001495271236,-84.7811654685611,16.686761930223597,-37.5292239715279
229.0,0.0,2.0432206,ResultsProsodyExp_Part3_Sub101_25-Dec-2024.mat,229,14.1840350271615,-80.6202284281875,-32.3899871510646,6.60094701045936,929,-38.6153085889293,32.978910438741,-40.0575760563746,38.2175814775579,-52.7993436160908,113.59913886692851,-7.667588905309998,31.61663446709854
230.0,0.0,2.1290663,ResultsProsodyExp_Part3_Sub101_25-Dec-2024.mat,230,24.0259783120295,66.0838753085398,12.868372287978,49.8819082167212,930,14.1089296984871,80.6982962566187,66.2285204852846,6.93553194603012,-9.9170486135424,14.614420948078902,53.36014819730661,-42.94637627069108
231.0,1.0,1.7818888,ResultsProsodyExp_Part3_Sub101_25-Dec-2024.mat,231,-25.5463701618137,44.8275703035495,59.6118890523394,-43.7769783489872,931,-1.16785322557527,-54.0506111220553,-71.9098276432955,-31.509116061766,24.37851693623843,-98.8781814256048,-131.5217166956349,12.267862287221199
232.0,1.0,1.7240754,ResultsProsodyExp_Part3_Sub101_25-Dec-2024.mat,232,-39.512751853264,40.7588923757287,69.4994766935455,-55.2154953082926,932,15.4645476268061,-15.8726587674077,-63.3672943086868,-49.0093151508526,54.9772994800701,-56.6315511431364,-132.8667710022323,6.206180157440002
233.0,1.0,1.5836604,ResultsProsodyExp_Part3_Sub101_25-Dec-2024.mat,233,-20.0731778137378,7.95217940473543,50.5596047735348,-79.2660068554433,933,-60.7518513628073,-80.8885598253906,14.1454370034146,82.2853410930582,-40.6786735490695,-88.84073923012603,-36.4141677701202,161.55134794850147
234.0,1.0,1.828717,ResultsProsodyExp_Part3_Sub101_25-Dec-2024.mat,234,-25.5031390973708,-24.9695713454116,51.3841070415415,37.9092033664924,934,-1.18738950719507,-40.1894089553696,-38.8949364283682,-5.38062977696094,24.315749590175727,-15.219837609957999,-90.2790434699097,-43.289833143453336
235.0,0.0,2.7142574,ResultsProsodyExp_Part3_Sub101_25-Dec-2024.mat,235,-20.6915650791049,-1.40067350649283,63.3727476941021,-82.7517473133177,935,19.9612954262363,71.3626223379877,71.8805584167815,13.882384479329,40.6528605053412,72.76329584448054,8.507810722679395,96.6341317926467
236.0,1.0,2.636282,ResultsProsodyExp_Part3_Sub101_25-Dec-2024.mat,236,-88.928489736936,-48.0889179098379,82.8467580781177,57.1241949310495,936,-33.3436016127233,81.1558560549315,48.3007498923526,-17.9294441503537,55.5848881242127,129.24477396476942,-34.5460081857651,-75.0536390814032
237.0,1.0,2.0030929,ResultsProsodyExp_Part3_Sub101_25-Dec-2024.mat,237,24.0881270001296,-0.424203865551581,5.87746341204073,-58.1668745714173,937,72.8673886016601,-21.7400850136941,0.382689456959711,-59.3375156984912,48.77926160153049,-21.315881148142516,-5.494773955081019,-1.1706411270738997
238.0,1.0,2.0616655,ResultsProsodyExp_Part3_Sub101_25-Dec-2024.mat,238,78.309277661862,64.3221049943502,-1.95949126981884,77.9301486263989,938,44.0695449121799,-50.2833999700296,-65.1626230697145,-9.65840117275869,-34.2397327496821,-114.6055049643798,-63.20313179989566,-87.58854979915759
239.0,0.0,2.0742885,ResultsProsodyExp_Part3_Sub101_25-Dec-2024.mat,239,-6.0647438384413,-30.1626472613098,1.22857376855301,64.9094309598,939,27.4089715910347,53.0151922356433,48.1046224538996,16.6052411345895,33.473715429476,83.1778394969531,46.87604868534659,-48.3041898252105
240.0,1.0,2.3453362,ResultsProsodyExp_Part3_Sub101_25-Dec-2024.mat,240,-24.9179154809892,-44.3832374816375,35.8719128882128,-72.7059645432804,940,-44.0204869070271,-58.9386967162452,-85.5200509536403,-69.4044633768354,-19.102571426037898,-14.555459234607696,-121.39196384185308,3.301501166445007
241.0,1.0,2.3362664,ResultsProsodyExp_Part3_Sub101_25-Dec-2024.mat,241,-52.0775695939937,29.2536907687648,-1.75221957652502,-8.87342492525618,941,59.1069741022135,17.9505829557187,-87.2902114419347,75.3023973069358,111.1845436962072,-11.303107813046097,-85.53799186540968,84.17582223219198
242.0,1.0,3.3063183,ResultsProsodyExp_Part3_Sub101_25-Dec-2024.mat,242,-34.0874988383799,-29.4321748875996,76.7122393374939,-56.0825065608251,942,-48.8296811952702,-16.3217413199488,-18.9334987041146,-55.5878978988008,-14.742182356890297,13.110433567650801,-95.6457380416085,0.4946086620243051
243.0,1.0,1.8498155,ResultsProsodyExp_Part3_Sub101_25-Dec-2024.mat,243,66.878303133426,65.81070977065,20.9657621118463,-3.38286559169312,943,-47.9088543471544,78.4974965043285,-59.7443297622012,81.5574764766119,-114.7871574805804,12.686786733678488,-80.71009187404749,84.94034206830501
244.0,0.0,2.1112068,ResultsProsodyExp_Part3_Sub101_25-Dec-2024.mat,244,24.66650807979,-81.8523876208292,-27.64932571414,54.4041888374668,944,-5.57268172750833,37.8907422581885,21.8400922559628,72.8182597187255,-30.23918980729833,119.74312987901772,49.48941797010281,18.414070881258702
245.0,1.0,1.689824,ResultsProsodyExp_Part3_Sub101_25-Dec-2024.mat,245,-65.704459966669,-46.9148783001348,2.38494828674479,19.9077061826467,945,-56.2961728210287,-42.9889303497921,-51.7653628007505,-24.0528391404611,9.408287145640308,3.925947950342703,-54.15031108749529,-43.960545323107795
246.0,1.0,1.9989636,ResultsProsodyExp_Part3_Sub101_25-Dec-2024.mat,246,1.79239520185751,5.6275275390695,55.6770762547142,-53.9457804728266,946,-75.8000988333542,58.6646064254863,-7.70237272420467,-11.008876278433,-77.59249403521171,53.0370788864168,-63.37944897891887,42.9369041943936
247.0,1.0,1.844962,ResultsProsodyExp_Part3_Sub101_25-Dec-2024.mat,247,-66.8833795605725,23.2708014683123,-32.6596902301583,62.7241428921538,947,-59.7256751069509,29.4927324159887,-55.5595109996276,62.4813596564657,7.157704453621591,6.221930947676402,-22.8998207694693,-0.24278323568810123
248.0,1.0,2.3366621,ResultsProsodyExp_Part3_Sub101_25-Dec-2024.mat,248,20.2141198733128,-83.3566414252984,-23.2504627656265,-14.0769525774972,948,63.097562893907,-73.5712697194462,30.8586666583243,-74.2637370955222,42.8834430205942,9.7853717058522,54.109129423950804,-60.186784518025
249.0,1.0,1.7149058,ResultsProsodyExp_Part3_Sub101_25-Dec-2024.mat,249,-34.4056308859413,58.8644412959929,38.0324994683725,-44.879833057788,949,-74.7442695207873,-69.1869104994807,-51.7831154205115,58.656456868504,-40.338638634846,-128.0513517954736,-89.815614888884,103.536289926292
250.0,0.0,2.506229,ResultsProsodyExp_Part3_Sub101_25-Dec-2024.mat,250,-85.739544886587,68.1220600787614,-12.2859252698902,-10.0628761862915,950,52.5871019722595,-18.3186234827174,64.7783644715052,-86.8491569424498,138.3266468588465,-86.44068356147879,77.0642897413954,-76.78628075615829
251.0,1.0,2.1853819,ResultsProsodyExp_Part3_Sub101_25-Dec-2024.mat,251,-40.6255284193536,65.8036759071832,19.8859956519047,28.8231224268341,951,54.8611347993639,54.985354532293,-47.1163452974592,2.89717665260821,95.4866632187175,-10.818321374890203,-67.0023409493639,-25.92594577422589
252.0,1.0,1.9770952,ResultsProsodyExp_Part3_Sub101_25-Dec-2024.mat,252,51.0765663908222,62.0328496746591,-58.279932035059,-54.6470274491495,952,6.50349173926425,-55.4098588696872,-34.2492252482775,82.7203527525383,-44.57307465155795,-117.44270854434629,24.0307067867815,137.3673802016878
253.0,1.0,2.1600203,ResultsProsodyExp_Part3_Sub101_25-Dec-2024.mat,253,-53.3020666637211,-19.839573283115,-29.5191955321595,63.3157331413784,953,-25.3348855575758,9.52009154486051,-43.582805440907,51.5778729186691,27.9671811061453,29.35966482797551,-14.063609908747502,-11.737860222709301
254.0,0.0,2.1761457,ResultsProsodyExp_Part3_Sub101_25-Dec-2024.mat,254,-59.0834769747948,-4.31752085723255,57.3132596918049,-65.5302353780424,954,18.4355463057796,-23.3858851170085,63.6816896328995,23.0168189500136,77.5190232805744,-19.068364259775947,6.368429941094597,88.547054328056
255.0,0.0,2.1939351,ResultsProsodyExp_Part3_Sub101_25-Dec-2024.mat,255,-24.0410360205494,-5.14188831828525,5.12007225231942,-56.5627894574952,955,-2.12679018243594,-45.805513410439,55.6489539506835,-56.3411415273774,21.91424583811346,-40.66362509215375,50.52888169836408,0.22164793011779693
256.0,1.0,1.8247491,ResultsProsodyExp_Part3_Sub101_25-Dec-2024.mat,256,76.1186978995747,-52.0774631548469,2.21142994793996,55.2875346177467,956,-84.7890066013462,22.0594454372865,-85.3140041729273,-75.1979387966489,-160.9077045009209,74.13690859213341,-87.52543412086726,-130.48547341439559
257.0,0.0,2.4473769,ResultsProsodyExp_Part3_Sub101_25-Dec-2024.mat,257,64.2245661566113,36.3857768772357,62.7940117415871,39.5746185654132,957,40.1036871864814,-12.9749687999259,9.996081037033,61.7901111096595,-24.1208789701299,-49.3607456771616,-52.7979307045541,22.215492544246295
258.0,1.0,1.7107221,ResultsProsodyExp_Part3_Sub101_25-Dec-2024.mat,258,69.5127242676822,-1.37896123536363,23.0643260777067,68.4970562610087,958,-35.8834586799997,-88.6177681041065,79.1220386498366,16.137700937211,-105.3961829476819,-87.23880686874287,56.0577125721299,-52.35935532379769
259.0,1.0,1.8085333,ResultsProsodyExp_Part3_Sub101_25-Dec-2024.mat,259,-38.5380774236169,-70.904328783071,87.5753249641863,39.9680649685641,959,34.538284046197,-75.0368128093739,40.4716028396219,-51.739426988741,73.07636146981389,-4.132484026302905,-47.10372212456439,-91.70749195730511
260.0,1.0,1.6552638,ResultsProsodyExp_Part3_Sub101_25-Dec-2024.mat,260,35.2566107090073,18.6947220603868,31.6119567138004,22.3449931973916,960,-1.84938510764737,-60.6433747404074,-75.8339067896659,48.1684515784793,-37.10599581665467,-79.3380968007942,-107.4458635034663,25.8234583810877
261.0,1.0,2.9264183,ResultsProsodyExp_Part3_Sub101_25-Dec-2024.mat,261,51.9785074402605,64.5044622299594,-31.6292727089436,-32.5166275189597,961,6.87283600289059,-88.5526412323852,70.6441114598812,29.0274344504364,-45.10567143736991,-153.0571034623446,102.2733841688248,61.5440619693961
262.0,1.0,1.8358246,ResultsProsodyExp_Part3_Sub101_25-Dec-2024.mat,262,58.7763749787052,-80.4923975561075,-29.0189244655249,45.9153809679638,962,2.65868027009244,10.8204454526842,-15.9627106813472,-45.4863596823397,-56.11769470861276,91.3128430087917,13.0562137841777,-91.40174065030351
263.0,0.0,2.3205106,ResultsProsodyExp_Part3_Sub101_25-Dec-2024.mat,263,65.7610052252023,65.4079977880132,-4.32558182967103,-25.2453597097635,963,61.0069242922522,57.0398219963217,41.494823338685,-36.3812455196643,-4.754080932950096,-8.368175791691506,45.82040516835603,-11.135885809900799
264.0,1.0,1.82684,ResultsProsodyExp_Part3_Sub101_25-Dec-2024.mat,264,-16.594454296127,-32.498659023232,-1.43975136819666,0.321419602354388,964,-7.73543979641183,70.4359843276934,-33.7182651259188,-8.27486336898603,8.85901449971517,102.9346433509254,-32.27851375772214,-8.596282971340417
265.0,1.0,1.8659941,ResultsProsodyExp_Part3_Sub101_25-Dec-2024.mat,265,13.6301988902476,-16.7168526474796,7.02710265613137,-84.3347592515722,965,-65.9810959557663,19.9873213150384,-61.0380221733262,-29.8014571672605,-79.6112948460139,36.704173962518,-68.06512482945757,54.53330208431169
266.0,0.0,3.0878506,ResultsProsodyExp_Part3_Sub101_25-Dec-2024.mat,266,23.7398043257386,-23.7849275287755,-25.5559124960163,-11.5968898209438,966,59.2318987679003,-56.076402569507,43.0718635522397,4.6038660076971,35.4920944421617,-32.2914750407315,68.627776048256,16.2007558286409
267.0,0.0,2.2609685,ResultsProsodyExp_Part3_Sub101_25-Dec-2024.mat,267,-44.9351980632809,-3.2391839562771,40.1151644385929,-22.7854613014861,967,-42.7662265524485,53.6518340340092,64.8722143878691,23.0661157690429,2.1689715108323995,56.8910179902863,24.757049949276208,45.851577070529004
268.0,1.0,1.8821101,ResultsProsodyExp_Part3_Sub101_25-Dec-2024.mat,268,-18.0766111666363,6.29181154140423,-79.7334433974576,7.24007807515153,968,-42.3091755272625,-85.5725764277473,-40.667582886875,-75.4223330431638,-24.232564360626196,-91.86438796915152,39.0658605105826,-82.66241111831533
269.0,0.0,1.8272912,ResultsProsodyExp_Part3_Sub101_25-Dec-2024.mat,269,-87.5496118985327,-62.0399748965901,-83.0551215425689,-89.1084008169783,969,70.9687035225688,-66.7735030487814,80.9041890708987,-63.6494175080112,158.5183154211015,-4.73352815219129,163.9593106134676,25.458983308967106
270.0,1.0,2.2822746,ResultsProsodyExp_Part3_Sub101_25-Dec-2024.mat,270,10.354910369005,75.6859486770751,23.4677167658075,62.0948660748737,970,-80.4443863736818,-74.0012329962152,-49.6151689131429,-18.6917572106763,-90.79929674268679,-149.6871816732903,-73.0828856789504,-80.78662328555001
271.0,1.0,2.786461,ResultsProsodyExp_Part3_Sub101_25-Dec-2024.mat,271,-37.0372907419258,-5.63414222939766,-1.83550664227029,85.1940623328006,971,54.2149577059899,70.7319914857564,-55.9976381712394,-84.6641965404615,91.2522484479157,76.36613371515405,-54.16213152896911,-169.85825887326212
272.0,0.0,2.3889028,ResultsProsodyExp_Part3_Sub101_25-Dec-2024.mat,272,72.2686861173813,-83.6838838234194,-76.5117188869189,35.7097228850605,972,-14.8355766296948,31.0311661231352,0.112345528394796,-7.51810750860239,-87.1042627470761,114.71504994655459,76.6240644153137,-43.22783039366289
273.0,0.0,2.1447675,ResultsProsodyExp_Part3_Sub101_25-Dec-2024.mat,273,-72.4887259625603,5.153971818766,34.0079608994341,-76.3354738872527,973,-21.4228732280154,22.7770486912525,69.5157496139353,1.44540916016006,51.06585273454489,17.6230768724865,35.507788714501196,77.78088304741276
274.0,0.0,2.3646768,ResultsProsodyExp_Part3_Sub101_25-Dec-2024.mat,274,-77.1239720145538,20.8804052282901,-13.1638938606088,-43.195446934412,974,-5.38547001669669,-77.0521650521766,78.5267933284465,-20.9241958027606,71.73850199785711,-97.9325702804667,91.6906871890553,22.271251131651397
275.0,1.0,3.99954,ResultsProsodyExp_Part3_Sub101_25-Dec-2024.mat,275,-56.2470434307911,-51.1458923424086,-51.1964348269826,-0.467468993940149,975,24.0426532799925,-40.7271046023722,-44.1003607060953,45.0438178227871,80.2896967107836,10.4187877400364,7.096074120887302,45.51128681672725
276.0,0.0,2.6497944,ResultsProsodyExp_Part3_Sub101_25-Dec-2024.mat,276,-65.9042670313928,14.3840218087886,63.7387715281898,32.2216988697498,976,54.7827759239772,19.1450296952172,-65.8947916848211,19.9565522044299,120.68704295537,4.761007886428601,-129.63356321301092,-12.2651466653199
277.0,1.0,1.8429071,ResultsProsodyExp_Part3_Sub101_25-Dec-2024.mat,277,22.9912811708672,-45.3458207878469,-55.6906988347264,88.3718723672795,977,41.1777684832395,-30.0497014048503,20.1769621528284,39.8760238287424,18.186487312372297,15.296119382996597,75.8676609875548,-48.495848538537096
278.0,1.0,2.1501138,ResultsProsodyExp_Part3_Sub101_25-Dec-2024.mat,278,-60.5395201403314,53.536630585952,-59.6852336603294,-64.0938552205967,978,-19.396747981139,-79.7832517115502,-47.0685404402556,19.6447993378784,41.1427721591924,-133.3198822975022,12.616693220073799,83.73865455847509
279.0,0.0,3.0000729,ResultsProsodyExp_Part3_Sub101_25-Dec-2024.mat,279,62.2302302209966,-21.7326183297088,-54.9973718331871,14.166687288559,979,-20.7622634951578,-39.0884077851252,-5.27451937352749,62.4271927936726,-82.9924937161544,-17.3557894554164,49.72285245965961,48.2605055051136
280.0,1.0,2.0485282,ResultsProsodyExp_Part3_Sub101_25-Dec-2024.mat,280,60.0321166604695,48.3686268017695,68.8409933684624,47.9232676726177,980,62.0295484447641,-80.1489565276306,-14.9498213501188,-50.2924012045902,1.997431784294605,-128.5175833294001,-83.7908147185812,-98.21566887720789
281.0,1.0,2.0323999,ResultsProsodyExp_Part3_Sub101_25-Dec-2024.mat,281,22.8946317568038,-16.9694581993122,37.0682377834561,-20.2047983959683,981,-14.5296676450469,4.55175823837944,1.29194373790336,-24.6677203681038,-37.4242994018507,21.521216437691642,-35.77629404555274,-4.462921972135501
282.0,1.0,2.2033627,ResultsProsodyExp_Part3_Sub101_25-Dec-2024.mat,282,57.6742775890486,-18.4827179044071,85.6857517757888,-18.9732469148186,982,39.4747880780486,17.8898277282882,-40.7864481316091,-43.850643829132,-18.199489511000003,36.3725456326953,-126.47219990739791,-24.877396914313398
283.0,1.0,1.9867248,ResultsProsodyExp_Part3_Sub101_25-Dec-2024.mat,283,62.1725541342551,44.0789941986546,54.1089223272406,-0.919191703598022,983,5.09238050243323,20.7640603458409,36.7273357037766,1.24465584302795,-57.08017363182187,-23.3149338528137,-17.381586623463996,2.163847546625972
284.0,0.0,2.4337692,ResultsProsodyExp_Part3_Sub101_25-Dec-2024.mat,284,76.04102456909,-7.21244181771355,-88.886109074404,-58.9048182299876,984,53.9805409623117,-41.0966518121175,42.8823268504884,4.66320138917606,-22.0604836067783,-33.884209994403946,131.7684359248924,63.56801961916366
285.0,1.0,2.2539267,ResultsProsodyExp_Part3_Sub101_25-Dec-2024.mat,285,-22.28393752876,-8.66224396409746,-57.3967010929934,76.2467778784054,985,-78.452689113622,-77.3131762028109,-49.4266174273792,-47.1607585300833,-56.168751584862,-68.65093223871344,7.9700836656142044,-123.4075364084887
286.0,1.0,2.0107133,ResultsProsodyExp_Part3_Sub101_25-Dec-2024.mat,286,-45.0693150333218,16.3042705729822,-39.1073372214726,40.9582103135376,986,-11.8464453248389,-35.4685187674575,-6.33501772259146,4.35593342394902,33.222869708482904,-51.7727893404397,32.77231949888114,-36.60227688958858
287.0,0.0,2.3293244,ResultsProsodyExp_Part3_Sub101_25-Dec-2024.mat,287,-53.1193926744473,-76.1524746442668,5.77885861697139,-57.7784938574,987,33.9723488696363,59.1465120686748,-35.9571412615844,-21.2952522740664,87.09174154408359,135.2989867129416,-41.73599987855579,36.4832415833336
288.0,0.0,2.7206822,ResultsProsodyExp_Part3_Sub101_25-Dec-2024.mat,288,-15.657267496407,4.61382431552282,11.8976732836843,-19.3024549244326,988,31.4328843341546,65.8035932274853,-23.98517388514,-70.9756246276475,47.0901518305616,61.189768911962474,-35.8828471688243,-51.67316970321491
289.0,1.0,2.0816021,ResultsProsodyExp_Part3_Sub101_25-Dec-2024.mat,289,47.694354055376,-22.7273883123811,7.76222410826712,-58.2302845732542,989,-29.7972394311587,-18.3150416748737,42.0637502527591,-43.9379298061776,-77.4915934865347,4.412346637507397,34.30152614449198,14.292354767076603
290.0,1.0,1.7131427,ResultsProsodyExp_Part3_Sub101_25-Dec-2024.mat,290,-34.3704635399482,44.5145347858566,11.0566539079347,54.2732057911512,990,84.9273401953402,-62.8902255961146,-55.4888760351118,54.3658973306502,119.2978037352884,-107.40476038197119,-66.5455299430465,0.09269153949900044
291.0,1.0,1.8140898,ResultsProsodyExp_Part3_Sub101_25-Dec-2024.mat,291,-72.2527312308641,16.5363031647745,40.7752049422434,28.9874684971431,991,18.7997502619319,52.7966830233402,21.8630630976645,27.231448363899,91.052481492796,36.2603798585657,-18.912141844578898,-1.7560201332441032
292.0,1.0,1.8878393,ResultsProsodyExp_Part3_Sub101_25-Dec-2024.mat,292,-6.45310921930564,-11.2486217743184,41.9934836341926,-13.1879338148359,992,-36.7796314530552,32.9376315816655,-55.9434841586474,-3.04559310687764,-30.326522233749564,44.1862533559839,-97.93696779284,10.14234070795826
293.0,1.0,1.7322082,ResultsProsodyExp_Part3_Sub101_25-Dec-2024.mat,293,-46.684899051914,-21.2896052248532,-9.80526459568804,-68.1898456296175,993,35.4261121295044,-60.4707521794454,-76.5215103745749,-55.6182035540921,82.1110111814184,-39.181146954592194,-66.71624577888686,12.571642075525396
294.0,0.0,2.9291888,ResultsProsodyExp_Part3_Sub101_25-Dec-2024.mat,294,-22.9216069737961,34.0488987183064,-78.7197085046845,-32.106414373543,994,85.5764557434613,27.6106546034906,-11.1647440736838,59.2855230147161,108.4980627172574,-6.438244114815795,67.55496443100071,91.3919373882591
295.0,0.0,1.7547838,ResultsProsodyExp_Part3_Sub101_25-Dec-2024.mat,295,-38.425355546194,27.4155106313545,-35.6912912228902,-23.5335136328645,995,28.8718774038837,58.6734297062043,-43.0621843765257,-20.0259348808213,67.2972329500777,31.257919074849802,-7.3708931536355,3.5075787520432016
296.0,1.0,11.5801102,ResultsProsodyExp_Part3_Sub101_25-Dec-2024.mat,296,41.8525990133647,22.1732133564959,57.6611260582504,-11.1419053439729,996,-69.4744394440582,76.72390208524,54.6341442706165,-62.8295639216428,-111.3270384574229,54.5506887287441,-3.0269817876339005,-51.6876585776699
297.0,1.0,1.8152576,ResultsProsodyExp_Part3_Sub101_25-Dec-2024.mat,297,-28.5955412252529,-9.84696529534287,2.74214647762748,48.1559645577946,997,-0.39426177400072,-74.1852868725196,-21.4416250056901,81.4171740604496,28.20127945125218,-64.33832157717673,-24.183771483317578,33.261209502655
298.0,1.0,1.9556621,ResultsProsodyExp_Part3_Sub101_25-Dec-2024.mat,298,80.025307439062,-36.9895638707372,79.5400518363124,-60.171503109908,998,45.9227046731184,30.9526906638331,-6.80612104691789,-47.8891833680083,-34.1026027659436,67.9422545345703,-86.3461728832303,12.282319741899705
299.0,1.0,1.8923836,ResultsProsodyExp_Part3_Sub101_25-Dec-2024.mat,299,32.4858843480741,-59.037021872014,69.6182739865559,29.3687979032284,999,41.9632773170551,36.9636919207374,45.803301726884,25.2843878492627,9.477392968981,96.00071379275141,-23.814972259671904,-4.084410053965701
300.0,1.0,6.6594916,ResultsProsodyExp_Part3_Sub101_25-Dec-2024.mat,300,-46.2464677175976,-88.9789569717763,-9.78684648115897,-40.6054445064838,1000,-36.2632400194852,13.9413941177322,65.373381764138,31.0085940983185,9.983227698112394,102.9203510895085,75.16022824529698,71.6140386048023
301.0,1.0,2.0710061,ResultsProsodyExp_Part4_Sub101_25-Dec-2024.mat,301,24.4553008081852,-69.7133261060147,37.1044422210941,-22.3413735006855,1001,36.2812637059675,-64.3653649056099,-55.6395774463942,72.9275422371861,11.825962897782297,5.347961200404811,-92.74401966748829,95.2689157378716
302.0,1.0,1.758921,ResultsProsodyExp_Part4_Sub101_25-Dec-2024.mat,302,-3.22236168912692,75.0247821691191,-25.7587863937998,-82.9728094267744,1002,15.4416053589912,27.4976317162114,-5.65227967448334,3.92073261935645,18.66396704811812,-47.527150452907705,20.106506719316457,86.89354204613085
303.0,0.0,2.0850154,ResultsProsodyExp_Part4_Sub101_25-Dec-2024.mat,303,-77.7093194404198,-63.704485657108,20.0158410138329,-85.6246410066456,1003,29.8001443799276,61.6169270196941,18.9292592675004,69.9116706660293,107.5094638203474,125.32141267680211,-1.0865817463325023,155.5363116726749
304.0,1.0,2.0767257,ResultsProsodyExp_Part4_Sub101_25-Dec-2024.mat,304,62.5179122625864,-23.6944285591944,20.6410007753507,22.2085572514635,1004,58.5187241867621,-86.2489544685845,7.09418660920647,-78.1623402595379,-3.9991880758243,-62.5545259093901,-13.54681416614423,-100.3708975110014
305.0,1.0,1.9976635,ResultsProsodyExp_Part4_Sub101_25-Dec-2024.mat,305,-50.3680871579234,-13.2378974059388,-73.0521618112454,42.3345279213824,1005,-2.07374895745763,-83.456582395287,-30.4318749520919,-59.8946599355274,48.294338200465766,-70.2186849893482,42.620286859153495,-102.2291878569098
306.0,0.0,3.0512198,ResultsProsodyExp_Part4_Sub101_25-Dec-2024.mat,306,39.7159714945767,32.5439622448398,-75.2673964209648,-31.0948015139579,1006,37.1184906560916,-76.273337126065,60.0854611230609,51.726355929236,-2.5974808384850974,-108.8172993709048,135.3528575440257,82.8211574431939
307.0,1.0,4.6880114,ResultsProsodyExp_Part4_Sub101_25-Dec-2024.mat,307,-21.4062162287973,18.7327598698267,-42.9488965872585,50.327417065461,1007,-11.1816604578137,20.8932890202188,-63.0174556319643,10.1047315354233,10.224555770983601,2.1605291503920974,-20.0685590447058,-40.2226855300377
308.0,0.0,2.9315408,ResultsProsodyExp_Part4_Sub101_25-Dec-2024.mat,308,6.09767337733893,-9.16363830246545,54.5485913230667,6.65268996137882,1008,73.3401513950809,-3.82102180159376,61.6093654973888,-33.8838393825556,67.24247801774196,5.34261650087169,7.060774174322098,-40.53652934393442
309.0,0.0,2.5973838,ResultsProsodyExp_Part4_Sub101_25-Dec-2024.mat,309,69.81007558053,-26.5882187987189,65.7017413468131,24.6015405415862,1009,32.232779467086,15.7385434551985,75.7913553620492,-15.2648476493575,-37.577296113444,42.326762253917394,10.089614015236108,-39.8663881909437
310.0,1.0,1.9806478,ResultsProsodyExp_Part4_Sub101_25-Dec-2024.mat,310,19.1158496696465,38.2434369045797,22.0264727101851,3.21876410908053,1010,16.2922654539955,17.6764150552219,80.0964583659475,-66.3320140935739,-2.8235842156509996,-20.567021849357804,58.069985655762395,-69.55077820265443
311.0,1.0,1.7198349,ResultsProsodyExp_Part4_Sub101_25-Dec-2024.mat,311,-37.5408489296825,-5.49303051753494,-19.7091798742088,23.5518677443384,1011,25.3413452499756,12.9507695056689,-88.8319876050978,-16.3671568956945,62.8821941796581,18.443800023203842,-69.122807730889,-39.9190246400329
312.0,0.0,2.5919445,ResultsProsodyExp_Part4_Sub101_25-Dec-2024.mat,312,79.7824047877842,-42.9774248430923,74.9967529985174,8.19174027306436,1012,78.3905781804438,80.3465042021455,54.2585962754389,-11.5219449416021,-1.3918266073404055,123.3239290452378,-20.738156723078497,-19.713685214666462
313.0,1.0,2.6379279,ResultsProsodyExp_Part4_Sub101_25-Dec-2024.mat,313,-24.1791679335198,-69.7005324499863,-29.9821818357124,-50.022106609758,1013,-49.7667556618587,-8.83961487765987,-26.3517163655294,-75.6478714033073,-25.587587728338903,60.86091757232643,3.630465470183001,-25.62576479354931
314.0,0.0,3.5996095,ResultsProsodyExp_Part4_Sub101_25-Dec-2024.mat,314,80.6985197149164,-67.8977314926602,-49.8112822734983,-35.2310266368689,1014,5.03608659477058,45.1452152316942,-6.51322904064433,-29.4087462551312,-75.66243312014582,113.04294672435441,43.298053232853974,5.8222803817376985
315.0,0.0,2.427916,ResultsProsodyExp_Part4_Sub101_25-Dec-2024.mat,315,28.5749894315452,37.1380771371092,5.5229482866347,-18.9881056273919,1015,19.70116924279,37.3592602893202,56.9227946193672,-7.09396965731216,-8.8738201887552,0.2211831522109975,51.3998463327325,11.89413597007974
316.0,1.0,2.0322893,ResultsProsodyExp_Part4_Sub101_25-Dec-2024.mat,316,-81.8834481657967,24.8253383329546,8.90058594499964,-13.416630280421,1016,16.4011168967907,-74.8115508407587,-33.2599012333616,-69.2533806726747,98.28456506258739,-99.6368891737133,-42.160487178361244,-55.83675039225369
317.0,0.0,2.3191958,ResultsProsodyExp_Part4_Sub101_25-Dec-2024.mat,317,18.7090080690721,83.9087169783307,-23.135318213343,-16.8571024553605,1017,7.41254507531198,44.6547540364466,59.8939425699051,-8.98579929469784,-11.296462993760121,-39.253962941884105,83.0292607832481,7.871303160662661
318.0,1.0,2.0353192,ResultsProsodyExp_Part4_Sub101_25-Dec-2024.mat,318,68.279254503888,64.0914509723939,-49.3596539414325,1.61134955892373,1018,58.6305438949699,-19.7023391594954,-89.416850061485,35.5028574008126,-9.648710608918101,-83.7937901318893,-40.057196120052495,33.891507841888874
319.0,1.0,1.8227148,ResultsProsodyExp_Part4_Sub101_25-Dec-2024.mat,319,-45.5521543399327,29.9746871389789,35.229202936144,-59.6837219176834,1019,-20.9820844615738,-58.9430278797231,39.9182671423143,32.3376478223309,24.5700698783589,-88.917715018702,4.6890642061703005,92.02136974001431
320.0,1.0,1.9602733,ResultsProsodyExp_Part4_Sub101_25-Dec-2024.mat,320,23.4321629187206,66.9297685083215,8.66848274717303,-4.31471551267776,1020,-42.6910372773687,-16.7444003513829,-30.6556353829175,-62.0575406766843,-66.1232001960893,-83.6741688597044,-39.324118130090525,-57.74282516400654
321.0,0.0,82.5039969,ResultsProsodyExp_Part4_Sub101_25-Dec-2024.mat,321,66.5681494025646,-1.30271088987884,-76.7051983148023,14.7971050182178,1021,-25.5182793598431,82.0908233144233,0.363137802070093,-9.06189772456697,-92.0864287624077,83.39353420430214,77.0683361168724,-23.85900274278477
322.0,1.0,1.9133369,ResultsProsodyExp_Part4_Sub101_25-Dec-2024.mat,322,89.3701914240242,63.5472581467278,46.8090338589146,63.2897832973099,1022,31.2030155980961,38.7711883826688,-48.2032186041869,-63.5942215839057,-58.1671758259281,-24.776069764059002,-95.0122524631015,-126.8840048812156
323.0,0.0,1.7577908,ResultsProsodyExp_Part4_Sub101_25-Dec-2024.mat,323,-62.0559167287508,-22.1586276447755,-41.9408378737914,81.9985344371842,1023,-24.7072889176442,8.34086826005407,50.427538838824,44.1706969153488,37.3486278111066,30.49949590482957,92.3683767126154,-37.827837521835406
324.0,1.0,3.480162,ResultsProsodyExp_Part4_Sub101_25-Dec-2024.mat,324,57.5565915478076,-59.456666904135,74.4084634864168,-87.0858382820599,1024,-56.5287446743291,73.506520502563,-21.7098537055421,-71.5639362432674,-114.0853362221367,132.963187406698,-96.11831719195891,15.52190203879249
325.0,1.0,3.3010688,ResultsProsodyExp_Part4_Sub101_25-Dec-2024.mat,325,53.2034012422386,22.8147307040077,1.52719634936887,-10.2957071608476,1025,-43.1943852469277,-40.6497692521954,-69.0093394933843,-22.2080245477289,-96.3977864891663,-63.4644999562031,-70.53653584275317,-11.9123173868813
326.0,0.0,5.1125137,ResultsProsodyExp_Part4_Sub101_25-Dec-2024.mat,326,-79.3754992447087,69.6072050892471,-56.2781837918304,-52.8434684421434,1026,35.4975029888888,3.14349645689945,82.9434412683885,-54.3065851624621,114.8730022335975,-66.46370863234765,139.2216250602189,-1.4631167203187019
327.0,1.0,2.0678318,ResultsProsodyExp_Part4_Sub101_25-Dec-2024.mat,327,83.4047440071267,15.1348065763643,38.7615111185135,24.6041645588055,1027,27.7471897529449,-72.429454710151,48.3893273061564,50.6763697991724,-55.65755425418179,-87.5642612865153,9.6278161876429,26.0722052403669
328.0,1.0,1.8390757,ResultsProsodyExp_Part4_Sub101_25-Dec-2024.mat,328,83.9136833870757,-19.8931004738009,78.7755056270603,3.31923799232188,1028,46.3276728260846,-50.9615538905476,-55.9134526500549,-40.6251117948526,-37.58601056099109,-31.0684534167467,-134.6889582771152,-43.94434978717448
329.0,0.0,2.1583353,ResultsProsodyExp_Part4_Sub101_25-Dec-2024.mat,329,-7.38156027507194,-49.4562121833961,-29.8441922533728,6.94595647055722,1029,29.3449794875752,44.8460262846546,-34.8415749523846,-1.61613863552202,36.726539762647135,94.30223846805069,-4.997382699011798,-8.562095106079239
330.0,1.0,2.5143683,ResultsProsodyExp_Part4_Sub101_25-Dec-2024.mat,330,0.264632397978998,-24.7613988081711,8.927818930101,20.509044162951,1030,-6.05093557427533,45.4475465812621,-51.5737404830025,-9.97607081398432,-6.315567972254328,70.20894538943321,-60.5015594131035,-30.48511497693532
331.0,0.0,2.3665477,ResultsProsodyExp_Part4_Sub101_25-Dec-2024.mat,331,80.0429548675016,-12.1035214556526,-24.0908426641192,48.3849810054816,1031,26.161869046819,-51.9726767376496,-27.6902984389827,45.3163426687898,-53.88108582068261,-39.869155281996996,-3.5994557748635003,-3.068638336691798
332.0,1.0,2.3897528,ResultsProsodyExp_Part4_Sub101_25-Dec-2024.mat,332,-38.3051271483645,21.6693189401715,-55.0462041290423,-75.5919181646538,1032,52.7069189795041,21.4214403028331,16.6871487898573,13.4108345361818,91.0120461278686,-0.247878637338399,71.7333529188996,89.0027527008356
333.0,0.0,2.1425468,ResultsProsodyExp_Part4_Sub101_25-Dec-2024.mat,333,-7.63929820367788,-15.2327844866499,-67.5166850327006,72.8721297734603,1033,24.6480965399498,-15.8439754997152,-68.9087591491661,-48.9284177722945,32.28739474362768,-0.6111910130652998,-1.3920741164655084,-121.8005475457548
334.0,1.0,1.7964272,ResultsProsodyExp_Part4_Sub101_25-Dec-2024.mat,334,43.2726215744852,1.93049516114146,19.9679958554551,-76.2107182454409,1034,36.3465839432128,-56.3430850966192,-56.8782456449452,48.9037193092071,-6.926037631272401,-58.273580257760656,-76.84624150040031,125.11443755464799
335.0,1.0,1.9351191,ResultsProsodyExp_Part4_Sub101_25-Dec-2024.mat,335,-24.62546486526,78.7703903689407,54.0775681239962,67.0898074226577,1035,-2.55077975490252,-85.5445064463544,50.4999489446048,-22.0718691145518,22.07468511035748,-164.3148968152951,-3.577619179391398,-89.1616765372095
336.0,1.0,1.8366218,ResultsProsodyExp_Part4_Sub101_25-Dec-2024.mat,336,17.2788742153038,-3.58718454832708,14.0706217950192,-27.5456770851052,1036,37.2460132294024,-17.0895616980766,-29.1450165012494,-83.1256973109129,19.9671390140986,-13.50237714974952,-43.2156382962686,-55.5800202258077
337.0,1.0,1.7070944,ResultsProsodyExp_Part4_Sub101_25-Dec-2024.mat,337,-65.7300699709427,-60.309338991466,29.5104947255961,72.8477136226124,1037,-82.5513669220317,56.569649230554,36.1856001178843,-33.4180688374199,-16.82129695108901,116.87898822202,6.675105392288199,-106.26578246003231
338.0,1.0,1.8905222,ResultsProsodyExp_Part4_Sub101_25-Dec-2024.mat,338,-16.1937801491443,-20.0849098727708,41.3582121918332,-85.1086182702212,1038,-53.3979270904088,37.3777540675717,56.4378406384625,32.4324497190868,-37.2041469412645,57.4626639403425,15.079628446629293,117.541067989308
339.0,1.0,1.9308193,ResultsProsodyExp_Part4_Sub101_25-Dec-2024.mat,339,89.4715978883317,24.4201674713565,86.0267193940802,-44.7803730401103,1039,40.3871076447111,-19.4371523160398,17.0243647982039,7.79057313658867,-49.0844902436206,-43.8573197873963,-69.0023545958763,52.57094617669897
340.0,1.0,2.1336159,ResultsProsodyExp_Part4_Sub101_25-Dec-2024.mat,340,29.7395557366586,36.7798441249115,13.7358043471594,-64.0219445562997,1040,42.8893326838444,-27.4809891806902,32.0446830109218,-21.0863998160198,13.149776947185803,-64.2608333056017,18.3088786637624,42.9355447402799
341.0,1.0,1.8320381,ResultsProsodyExp_Part4_Sub101_25-Dec-2024.mat,341,40.5806647309702,-6.55608624223479,24.7851509368147,-17.4840543092089,1041,-83.2631302528267,19.3323745633761,67.2741947159843,-88.4744448348121,-123.8437949837969,25.88846080561089,42.48904377916959,-70.9903905256032
342.0,0.0,2.1240301,ResultsProsodyExp_Part4_Sub101_25-Dec-2024.mat,342,-39.8985401618151,-86.0672656275853,55.5278175702389,-74.8297769017994,1042,57.718159872178,-23.637320111234,75.7240068305215,12.595292894163,97.6167000339931,62.429945516351296,20.1961892602826,87.4250697959624
343.0,1.0,1.8683006,ResultsProsodyExp_Part4_Sub101_25-Dec-2024.mat,343,-14.5998986801023,-49.5250755790765,-14.187204039407,-68.6196713398049,1043,56.1335618785088,-50.01895199045,-54.8144291442753,19.6559587492993,70.7334605586111,-0.493876411373499,-40.6272251048683,88.2756300891042
344.0,0.0,1.9449153,ResultsProsodyExp_Part4_Sub101_25-Dec-2024.mat,344,11.972808864117,-69.1270701109491,-46.8506152200165,-53.0097868312261,1044,-3.88273435093632,86.1842875566662,-24.6422528625818,-38.1253568258374,-15.85554321505332,155.3113576676153,22.2083623574347,14.884430005388701
345.0,0.0,2.4807974,ResultsProsodyExp_Part4_Sub101_25-Dec-2024.mat,345,-18.9262429715573,-70.3076831057819,-28.2922459678276,63.3093872458978,1045,14.0791884900954,58.2963639753451,11.4332585616144,-0.0352546550647227,33.0054314616527,128.60404708112702,39.725504529442,-63.34464190096253
346.0,0.0,2.1201314,ResultsProsodyExp_Part4_Sub101_25-Dec-2024.mat,346,-4.2139529372535804,-68.1867651572115,-48.7052397351035,9.68094870930415,1046,31.2946457556006,70.321249072647,-22.0990366365104,-21.5246908909173,35.50859869285418,138.5080142298585,26.606203098593095,-31.20563960022145
347.0,1.0,1.8467524,ResultsProsodyExp_Part4_Sub101_25-Dec-2024.mat,347,-83.3475410468248,13.6705175835303,52.6790619671146,69.9898272678995,1047,44.1365803851271,-18.0838790692726,72.9292806350732,16.0349702666729,127.4841214319519,-31.754396652802903,20.2502186679586,-53.9548570012266
